timestamp,TIMESTAMP,ACCEL_X,ACCEL_Y,ACCEL_Z,GYRO_P,GYRO_R,GYRO_Y,GSR_RES,GSR_CON,PPG_RAW,HEART_RATE,HRV
1911254.9333348,2018011.75,7.760622501373291,-2.4177138805389404,5.639736652374268,2.0458016395568848,-1.2977099418640137,-1.2977099418640137,3204.031494140625,1346.0,1400.0,284.4444580078125,210.9375
1911254.934088,2018019.625,7.777379035949707,-2.3913824558258057,5.658886909484863,2.2290077209472656,-1.3587785959243774,-1.7404580116271973,3204.031494140625,1346.0,1400.7325439453125,284.4444580078125,210.9375
1911254.9347023,2018027.375,7.820466995239258,-2.386594772338867,5.72112512588501,2.1984732151031494,-1.8625954389572144,-1.5572519302368164,3204.031494140625,1346.0,1402.930419921875,284.4444580078125,210.9375
1911254.9508878,2018035.25,7.774984836578369,-2.405745029449463,5.692399978637695,1.8320610523223877,-1.7557251453399658,-1.5267175436019897,3204.031494140625,1346.0,1405.86083984375,284.4444580078125,210.9375
1911254.9583703,2018043.0,7.76780366897583,-2.4248952865600586,5.697187423706055,1.496183156967163,-2.0916030406951904,-1.7251908779144287,3204.031494140625,1346.0,1406.5933837890625,202.1052703857422,296.875
1911254.9789837,2018050.875,7.774984836578369,-2.4081387519836426,5.71873140335083,1.496183156967163,-1.8167939186096191,-1.6793893575668335,3204.031494140625,1346.0,1405.86083984375,202.1052703857422,296.875
1911254.9794925,2018058.625,7.825254440307617,-2.3698384761810303,5.685218334197998,0.35114502906799316,-1.6488549709320068,-1.4351145029067993,3204.031494140625,1346.0,1405.128173828125,202.1052703857422,296.875
1911254.981725,2018066.5,7.861160755157471,-2.345900774002075,5.678037166595459,-1.0534350872039795,-1.5419846773147583,-1.2977099418640137,3199.359130859375,1347.0,1404.3956298828125,202.1052703857422,296.875
1911254.9946824,2018074.25,7.81807279586792,-2.3937761783599854,5.651705741882324,-2.030534267425537,-0.9618320465087891,-1.4045801162719727,3204.031494140625,1346.0,1403.6629638671875,202.1052703857422,296.875
1911254.9953734,2018082.125,7.760622501373291,-2.4272890090942383,5.637342929840088,-2.641221284866333,-0.7480915784835815,-1.6793893575668335,3204.031494140625,1346.0,1402.19775390625,202.1052703857422,296.875
1911255.0063503,2018089.875,7.8061041831970215,-2.4177138805389404,5.646917819976807,-2.0458016395568848,-0.6412213444709778,-1.572519063949585,3199.359130859375,1347.0,1401.4652099609375,202.1052703857422,296.875
1911255.0068428,2018097.75,7.901854991912842,-2.381807327270508,5.678037166595459,-0.6564885377883911,-1.0229008197784424,-1.694656491279602,3199.359130859375,1347.0,1401.4652099609375,202.1052703857422,296.875
1911255.0173884,2018105.5,7.863554954528809,-2.3913824558258057,5.685218334197998,0.9923664331436157,-1.267175555229187,-1.9236640930175781,3199.359130859375,1347.0,1401.4652099609375,202.1052703857422,296.875
1911255.033243,2018113.375,7.875523567199707,-2.386594772338867,5.658886909484863,1.0687023401260376,-1.0687023401260376,-1.9083969593048096,3199.359130859375,1347.0,1401.4652099609375,202.1052703857422,296.875
1911255.0335147,2018121.125,7.844404697418213,-2.4177138805389404,5.699581146240234,0.3664122223854065,-1.587786316871643,-1.8167939186096191,3199.359130859375,1347.0,1402.930419921875,202.1052703857422,296.875
1911255.0393711,2018129.0,7.849192142486572,-2.4248952865600586,5.713943958282471,0.1221374049782753,-1.2824426889419556,-1.877862572669983,3199.359130859375,1347.0,1403.6629638671875,202.1052703857422,296.875
1911255.0451963,2018136.75,7.837223052978516,-2.4105327129364014,5.704368591308594,0.290076345205307,-1.0992366075515747,-1.694656491279602,3199.359130859375,1347.0,1402.19775390625,202.1052703857422,296.875
1911255.0574438,2018144.625,7.794135093688965,-2.3842010498046875,5.752243995666504,0.7633587718009949,-0.6870229244232178,-1.694656491279602,3194.700439453125,1348.0,1400.7325439453125,202.1052703857422,296.875
1911255.0622676,2018152.375,7.803710460662842,-2.3674447536468506,5.776181697845459,1.2824426889419556,-1.2061069011688232,-1.7404580116271973,3194.700439453125,1348.0,1399.2674560546875,202.1052703857422,296.875
1911255.0771976,2018160.25,7.794135093688965,-2.381807327270508,5.749850273132324,0.6259542107582092,-0.9923664331436157,-1.6335878372192383,3194.700439453125,1348.0,1399.2674560546875,202.1052703857422,296.875
1911255.0851455,2018168.0,7.763016223907471,-2.422501564025879,5.7642130851745605,1.0076335668563843,-1.3435114622116089,-1.572519063949585,3194.700439453125,1348.0,1399.2674560546875,202.1052703857422,296.875
1911255.0855017,2018175.875,7.748653411865234,-2.4272890090942383,5.7713942527771,1.2061069011688232,-2.0458016395568848,-1.6183205842971802,3199.359130859375,1347.0,1400.7325439453125,202.1052703857422,296.875
1911255.0940908,2018183.625,7.798923015594482,-2.362657070159912,5.749850273132324,0.7938931584358215,-1.9389313459396362,-1.0229008197784424,3194.700439453125,1348.0,1400.7325439453125,202.1052703857422,296.875
1911255.1021313,2018191.5,7.839616775512695,-2.3243565559387207,5.754637718200684,0.4885496199131012,-1.9847328662872314,-0.7938931584358215,3190.05517578125,1349.0,1401.4652099609375,202.1052703857422,296.875
1911255.1131101,2018199.25,7.8061041831970215,-2.3698384761810303,5.704368591308594,0.13740457594394684,-1.9847328662872314,-0.8396946787834167,3194.700439453125,1348.0,1400.0,202.1052703857422,296.875
1911255.1231778,2018207.125,7.81567907333374,-2.338719367980957,5.658886909484863,0.030534351244568825,-2.0916030406951904,-0.9160305261611938,3194.700439453125,1348.0,1402.19775390625,202.1052703857422,296.875
1911255.1237475,2018214.875,7.7965288162231445,-2.348294496536255,5.678037166595459,0.13740457594394684,-1.9541984796524048,-0.9007633328437805,3194.700439453125,1348.0,1402.930419921875,202.1052703857422,296.875
1911255.1349699,2018222.75,7.837223052978516,-2.3506882190704346,5.668461799621582,0.4885496199131012,-1.587786316871643,-1.0534350872039795,3190.05517578125,1349.0,1404.3956298828125,202.1052703857422,296.875
1911255.1434262,2018230.5,7.8228607177734375,-2.329144239425659,5.6493120193481445,0.06106870248913765,-1.6335878372192383,-1.5572519302368164,3190.05517578125,1349.0,1403.6629638671875,202.1052703857422,296.875
1911255.1509686,2018238.375,7.858767032623291,-2.3195691108703613,5.651705741882324,-0.2748091518878937,-1.1908396482467651,-1.0076335668563843,3194.700439453125,1348.0,1403.6629638671875,202.1052703857422,296.875
1911255.1607828,2018246.125,7.808497905731201,-2.348294496536255,5.646917819976807,-0.2442748099565506,-1.160305380821228,-1.6030534505844116,3194.700439453125,1348.0,1402.930419921875,202.1052703857422,296.875
1911255.1611125,2018254.0,7.786953926086426,-2.3506882190704346,5.666068077087402,-0.10687022656202316,-1.0229008197784424,-1.4809160232543945,3190.05517578125,1349.0,1400.7325439453125,202.1052703857422,296.875
1911255.1759506,2018261.75,7.8228607177734375,-2.3363256454467773,5.694793701171875,-0.21374045312404633,-0.9618320465087891,-1.4351145029067993,3190.05517578125,1349.0,1397.069580078125,202.1052703857422,296.875
1911255.1797719,2018269.625,7.784560203552246,-2.3578696250915527,5.699581146240234,-0.35114502906799316,-0.8549618124961853,-1.5419846773147583,3185.423583984375,1350.0,1395.6043701171875,202.1052703857422,296.875
1911255.1917638,2018277.375,7.820466995239258,-2.329144239425659,5.713943958282471,-0.9312977194786072,-0.9618320465087891,-1.3587785959243774,3194.700439453125,1348.0,1394.13916015625,202.1052703857422,296.875
1911255.2017444,2018285.25,7.81807279586792,-2.3530819416046143,5.706762313842773,-1.0229008197784424,-0.9465649127960205,-1.1145038604736328,3185.423583984375,1350.0,1395.6043701171875,202.1052703857422,296.875
1911255.2038131,2018293.0,7.777379035949707,-2.4009575843811035,5.713943958282471,-0.9618320465087891,-1.572519063949585,-1.2977099418640137,3185.423583984375,1350.0,1397.80224609375,202.1052703857422,296.875
1911255.221858,2018300.875,7.8132853507995605,-2.3411130905151367,5.733093738555908,-0.7480915784835815,-1.160305380821228,-0.6717557311058044,3190.05517578125,1349.0,1400.7325439453125,202.1052703857422,296.875
1911255.2236784,2018308.625,7.7965288162231445,-2.379413604736328,5.713943958282471,-0.8702290058135986,-1.5114504098892212,-0.7938931584358215,3190.05517578125,1349.0,1402.19775390625,202.1052703857422,296.875
1911255.2316777,2018316.5,7.842010974884033,-2.348294496536255,5.699581146240234,-0.885496199131012,-1.3435114622116089,-1.0076335668563843,3185.423583984375,1350.0,1402.930419921875,202.1052703857422,296.875
1911255.2489488,2018324.25,7.880311012268066,-2.345900774002075,5.687612056732178,-1.3740458488464355,-1.2519084215164185,-0.8549618124961853,3190.05517578125,1349.0,1402.19775390625,202.1052703857422,296.875
1911255.2495079,2018332.125,7.827648162841797,-2.3746259212493896,5.687612056732178,-1.4045801162719727,-1.1755725145339966,-1.267175555229187,3185.423583984375,1350.0,1402.930419921875,202.1052703857422,296.875
1911255.2556532,2018339.875,7.887492656707764,-2.362657070159912,5.678037166595459,-1.4809160232543945,-0.8244274854660034,-1.0229008197784424,3185.423583984375,1350.0,1402.930419921875,202.1052703857422,296.875
1911255.263477,2018347.75,7.846798419952393,-2.3530819416046143,5.680430889129639,-1.4045801162719727,-0.8549618124961853,-0.885496199131012,3180.80517578125,1351.0,1401.4652099609375,202.1052703857422,296.875
1911255.2696001,2018355.5,7.844404697418213,-2.4009575843811035,5.630161762237549,-1.6488549709320068,-0.9007633328437805,-0.9618320465087891,3190.05517578125,1349.0,1401.4652099609375,202.1052703857422,296.875
1911255.2794577,2018363.375,7.810891628265381,-2.3985636234283447,5.651705741882324,-1.1908396482467651,-0.6564885377883911,-1.267175555229187,3180.80517578125,1351.0,1402.19775390625,202.1052703857422,296.875
1911255.2814625,2018371.125,7.830041885375977,-2.3770196437835693,5.651705741882324,-1.0839694738388062,-0.6259542107582092,-1.2061069011688232,3185.423583984375,1350.0,1400.7325439453125,202.1052703857422,296.875
1911255.296504,2018379.0,7.791741371154785,-2.3985636234283447,5.668461799621582,-0.6564885377883911,-0.8549618124961853,-1.389312982559204,3185.423583984375,1350.0,1401.4652099609375,202.1052703857422,296.875
1911255.2967775,2018386.75,7.853979587554932,-2.3842010498046875,5.709156036376953,-0.885496199131012,-0.885496199131012,-1.5114504098892212,3185.423583984375,1350.0,1401.4652099609375,202.1052703857422,296.875
1911255.3043892,2018394.625,7.779772758483887,-2.3937761783599854,5.704368591308594,-0.8244274854660034,-0.6106870174407959,-1.4809160232543945,3185.423583984375,1350.0,1400.0,202.1052703857422,296.875
1911255.3112,2018402.375,7.798923015594482,-2.3985636234283447,5.697187423706055,-0.9618320465087891,-1.0076335668563843,-1.2061069011688232,3185.423583984375,1350.0,1397.80224609375,202.1052703857422,296.875
1911255.3230985,2018410.25,7.808497905731201,-2.3913824558258057,5.699581146240234,-0.8702290058135986,-1.160305380821228,-1.0229008197784424,3180.80517578125,1351.0,1395.6043701171875,202.1052703857422,296.875
1911255.3340899,2018418.0,7.803710460662842,-2.3985636234283447,5.687612056732178,-0.6717557311058044,-1.572519063949585,-0.6870229244232178,3185.423583984375,1350.0,1391.208740234375,202.1052703857422,296.875
1911255.3360822,2018425.875,7.76540994644165,-2.42010760307312,5.682824611663818,-0.21374045312404633,-1.2061069011688232,-1.1755725145339966,3180.80517578125,1351.0,1390.4761962890625,202.1052703857422,296.875
1911255.3520653,2018433.625,7.820466995239258,-2.396169900894165,5.663674354553223,-0.8091602921485901,-1.4351145029067993,-0.9618320465087891,3180.80517578125,1351.0,1388.2784423828125,202.1052703857422,296.875
1911255.3523633,2018441.5,7.827648162841797,-2.3913824558258057,5.620586395263672,-0.9923664331436157,-1.389312982559204,-0.7022900581359863,3180.80517578125,1351.0,1386.813232421875,202.1052703857422,296.875
1911255.365514,2018449.25,7.7893476486206055,-2.412926435470581,5.608617782592773,-0.732824444770813,-1.6488549709320068,-0.9770992398262024,3176.200439453125,1352.0,1386.08056640625,202.1052703857422,296.875
1911255.3730147,2018457.125,7.801316738128662,-2.4153201580047607,5.603829860687256,-0.5648854970932007,-1.8625954389572144,-1.0229008197784424,3180.80517578125,1351.0,1388.2784423828125,202.1052703857422,296.875
1911255.3789687,2018464.875,7.825254440307617,-2.4009575843811035,5.618192672729492,-0.5496183037757874,-1.7251908779144287,-1.3740458488464355,3180.80517578125,1351.0,1391.208740234375,202.1052703857422,296.875
1911255.3871939,2018472.75,7.839616775512695,-2.3913824558258057,5.639736652374268,-0.732824444770813,-1.2519084215164185,-1.7557251453399658,3176.200439453125,1352.0,1394.871826171875,202.1052703857422,296.875
1911255.3909914,2018480.5,7.856373310089111,-2.3674447536468506,5.6062235832214355,-1.465648889541626,-1.1908396482467651,-1.7404580116271973,3176.200439453125,1352.0,1398.5347900390625,202.1052703857422,296.875
1911255.406881,2018488.375,7.7893476486206055,-2.4105327129364014,5.594254970550537,-1.5267175436019897,-0.9007633328437805,-1.7557251453399658,3180.80517578125,1351.0,1403.6629638671875,202.1052703857422,296.875
1911255.4149138,2018496.125,7.810891628265381,-2.37223219871521,5.622980117797852,-1.0839694738388062,-0.39694657921791077,-1.7557251453399658,3180.80517578125,1351.0,1408.05859375,202.1052703857422,296.875
1911255.4152901,2018504.0,7.794135093688965,-2.42010760307312,5.6493120193481445,-0.885496199131012,-0.7175572514533997,-1.5572519302368164,3180.80517578125,1351.0,1409.5238037109375,202.1052703857422,460.9375
1911255.4220666,2018511.75,7.758228778839111,-2.4344704151153564,5.656493186950684,-0.42748090624809265,-0.6717557311058044,-1.6335878372192383,3180.80517578125,1351.0,1407.3260498046875,202.1052703857422,460.9375
1911255.4298419,2018519.625,7.798923015594482,-2.3985636234283447,5.680430889129639,-0.5954198241233826,-0.8702290058135986,-1.5267175436019897,3176.200439453125,1352.0,1402.930419921875,202.1052703857422,460.9375
1911255.439909,2018527.375,7.8228607177734375,-2.3842010498046875,5.709156036376953,-1.3129770755767822,-1.2519084215164185,-2.0152671337127686,3176.200439453125,1352.0,1399.2674560546875,202.1052703857422,460.9375
1911255.4541077,2018535.25,7.8228607177734375,-2.4512267112731934,5.694793701171875,-0.6106870174407959,-1.3740458488464355,-1.6488549709320068,3176.200439453125,1352.0,1396.3370361328125,202.1052703857422,460.9375
1911255.4611652,2018543.0,7.839616775512695,-2.345900774002075,5.658886909484863,-1.0534350872039795,-1.3740458488464355,-1.389312982559204,3176.200439453125,1352.0,1389.7435302734375,202.1052703857422,460.9375
1911255.4662226,2018550.875,7.830041885375977,-2.3435068130493164,5.646917819976807,-0.4885496199131012,-1.038167953491211,-1.4045801162719727,3176.200439453125,1352.0,1383.150146484375,202.1052703857422,460.9375
1911255.4664915,2018558.625,7.839616775512695,-2.3506882190704346,5.644524097442627,-0.5496183037757874,-0.8702290058135986,-1.2366411685943604,3180.80517578125,1351.0,1379.4871826171875,202.1052703857422,460.9375
1911255.4781477,2018566.5,7.868342399597168,-2.321962833404541,5.656493186950684,-0.5954198241233826,-0.6717557311058044,-1.3587785959243774,3171.60888671875,1353.0,1380.2197265625,202.1052703857422,460.9375
1911255.4868218,2018574.25,7.832435607910156,-2.4105327129364014,5.642130374908447,-0.6564885377883911,-0.6412213444709778,-1.4503816366195679,3176.200439453125,1352.0,1380.2197265625,202.1052703857422,460.9375
1911255.4938277,2018582.125,7.81567907333374,-2.487133502960205,5.6732497215271,0.30534350872039795,-0.8396946787834167,-1.7251908779144287,3176.200439453125,1352.0,1381.6849365234375,202.1052703857422,460.9375
1911255.5056919,2018589.875,7.834829330444336,-2.4584081172943115,5.680430889129639,0.4885496199131012,-1.0534350872039795,-1.877862572669983,3176.200439453125,1352.0,1387.5457763671875,202.1052703857422,460.9375
1911255.5187063,2018597.75,7.853979587554932,-2.4105327129364014,5.704368591308594,0.5038167834281921,-1.0534350872039795,-1.6793893575668335,3171.60888671875,1353.0,1394.13916015625,202.1052703857422,460.9375
1911255.5237582,2018605.5,7.820466995239258,-2.403351306915283,5.697187423706055,0.1679389327764511,-1.2824426889419556,-1.8167939186096191,3171.60888671875,1353.0,1397.80224609375,202.1052703857422,460.9375
1911255.5316801,2018613.375,7.748653411865234,-2.3842010498046875,5.6493120193481445,-0.2442748099565506,-0.9618320465087891,-1.6488549709320068,3171.60888671875,1353.0,1400.7325439453125,202.1052703857422,460.9375
1911255.5320668,2018621.125,7.784560203552246,-2.338719367980957,5.699581146240234,-0.5038167834281921,-0.6870229244232178,-1.1145038604736328,3171.60888671875,1353.0,1403.6629638671875,202.1052703857422,460.9375
1911255.5429639,2018629.0,7.825254440307617,-2.338719367980957,5.7307000160217285,0.18320611119270325,-0.47328245639801025,-1.14503812789917,3167.030517578125,1354.0,1405.86083984375,202.1052703857422,460.9375
1911255.5516077,2018636.75,7.827648162841797,-2.3746259212493896,5.7474565505981445,0.9312977194786072,-0.8549618124961853,-1.1908396482467651,3171.60888671875,1353.0,1405.86083984375,202.1052703857422,460.9375
1911255.5587491,2018644.625,7.81807279586792,-2.379413604736328,5.76660680770874,1.2366411685943604,-1.3740458488464355,-1.267175555229187,3171.60888671875,1353.0,1402.930419921875,202.1052703857422,460.9375
1911255.5707336,2018652.375,7.808497905731201,-2.365050792694092,5.728306293487549,0.35114502906799316,-1.3435114622116089,-1.587786316871643,3171.60888671875,1353.0,1396.3370361328125,202.1052703857422,460.9375
1911255.5746099,2018660.25,7.803710460662842,-2.3746259212493896,5.728306293487549,-0.9770992398262024,-1.0992366075515747,-1.4198473691940308,3167.030517578125,1354.0,1386.813232421875,202.1052703857422,460.9375
1911255.584637,2018668.0,7.7725911140441895,-2.3913824558258057,5.692399978637695,-1.877862572669983,-0.7175572514533997,-1.2977099418640137,3171.60888671875,1353.0,1380.2197265625,202.1052703857422,460.9375
1911255.584909,2018675.875,7.77019739151001,-2.4153201580047607,5.728306293487549,-1.7557251453399658,-0.7480915784835815,-1.038167953491211,3171.60888671875,1353.0,1377.2894287109375,202.1052703857422,460.9375
1911255.5946261,2018683.625,7.779772758483887,-2.422501564025879,5.685218334197998,-1.160305380821228,-1.2519084215164185,-1.3740458488464355,3167.030517578125,1354.0,1378.754638671875,202.1052703857422,460.9375
1911255.6026618,2018691.5,7.8228607177734375,-2.4248952865600586,5.6493120193481445,-0.5343511700630188,-1.4198473691940308,-1.4809160232543945,3167.030517578125,1354.0,1384.6153564453125,202.1052703857422,460.9375
1911255.6145653,2018699.25,7.844404697418213,-2.422501564025879,5.6732497215271,-0.4122137427330017,-1.8320610523223877,-1.5114504098892212,3167.030517578125,1354.0,1389.7435302734375,202.1052703857422,460.9375
1911255.6276041,2018707.125,7.8228607177734375,-2.4105327129364014,5.639736652374268,0.04580152779817581,-2.106870174407959,-1.587786316871643,3167.030517578125,1354.0,1396.3370361328125,202.1052703857422,460.9375
1911255.627871,2018714.875,7.81807279586792,-2.3842010498046875,5.634949207305908,0.3206106722354889,-1.9236640930175781,-2.076335906982422,3171.60888671875,1353.0,1400.0,202.1052703857422,460.9375
1911255.6357477,2018722.75,7.834829330444336,-2.3243565559387207,5.620586395263672,0.47328245639801025,-2.0152671337127686,-1.6335878372192383,3167.030517578125,1354.0,1402.930419921875,202.1052703857422,460.9375
1911255.6405902,2018730.5,7.894673824310303,-2.2669060230255127,5.6062235832214355,0.09160305559635162,-1.2366411685943604,-1.2824426889419556,3167.030517578125,1354.0,1403.6629638671875,202.1052703857422,460.9375
1911255.6525908,2018738.375,7.894673824310303,-2.3028125762939453,5.611011505126953,-0.3664122223854065,-1.3129770755767822,-1.0687023401260376,3171.60888671875,1353.0,1405.86083984375,202.1052703857422,460.9375
1911255.6625836,2018746.125,7.839616775512695,-2.3411130905151367,5.620586395263672,-0.580152690410614,-0.8702290058135986,-1.3129770755767822,3167.030517578125,1354.0,1408.791259765625,202.1052703857422,460.9375
1911255.6628529,2018754.0,7.827648162841797,-2.37223219871521,5.613405227661133,-1.0076335668563843,-0.8396946787834167,-1.1908396482467651,3162.46533203125,1355.0,1411.7215576171875,202.1052703857422,460.9375
1911255.676179,2018761.75,7.849192142486572,-2.362657070159912,5.587073802947998,-0.8396946787834167,-0.8396946787834167,-0.9923664331436157,3167.030517578125,1354.0,1411.7215576171875,202.1052703857422,460.9375
1911255.6824923,2018769.625,7.861160755157471,-2.3530819416046143,5.587073802947998,-1.389312982559204,-0.580152690410614,-1.1908396482467651,3167.030517578125,1354.0,1411.7215576171875,202.1052703857422,460.9375
1911255.6894861,2018777.375,7.830041885375977,-2.3698384761810303,5.541591644287109,-1.6793893575668335,-0.580152690410614,-1.2061069011688232,3167.030517578125,1354.0,1411.7215576171875,202.1052703857422,460.9375
1911255.7014604,2018785.25,7.7893476486206055,-2.4081387519836426,5.644524097442627,-1.0076335668563843,-0.7022900581359863,-1.6641221046447754,3162.46533203125,1355.0,1411.7215576171875,202.1052703857422,460.9375
1911255.7017991,2018793.0,7.77019739151001,-2.4081387519836426,5.661280632019043,-0.5190839767456055,-0.8091602921485901,-1.7862595319747925,3162.46533203125,1355.0,1410.989013671875,202.1052703857422,460.9375
1911255.7145441,2018800.875,7.779772758483887,-2.405745029449463,5.651705741882324,-0.25954198837280273,-1.2366411685943604,-1.6030534505844116,3167.030517578125,1354.0,1411.7215576171875,202.1052703857422,296.875
1911255.7194605,2018808.625,7.794135093688965,-2.37223219871521,5.804907321929932,0.21374045312404633,-1.3435114622116089,-1.587786316871643,3162.46533203125,1355.0,1412.4542236328125,202.1052703857422,296.875
1911255.733339,2018816.5,7.808497905731201,-2.388988733291626,5.656493186950684,0.1679389327764511,-1.7251908779144287,-1.3129770755767822,3162.46533203125,1355.0,1413.186767578125,202.1052703857422,296.875
1911255.7429505,2018824.25,7.868342399597168,-2.345900774002075,5.685218334197998,-0.442748099565506,-1.14503812789917,-1.0687023401260376,3162.46533203125,1355.0,1408.05859375,202.1052703857422,296.875
1911255.7433424,2018832.125,7.851585865020752,-2.3363256454467773,5.675643444061279,-1.1145038604736328,-0.9618320465087891,-1.0687023401260376,3157.913330078125,1356.0,1402.930419921875,202.1052703857422,296.875
1911255.7532009,2018839.875,7.873129844665527,-2.3506882190704346,5.627768039703369,-1.5572519302368164,-0.8702290058135986,-1.1145038604736328,3162.46533203125,1355.0,1398.5347900390625,202.1052703857422,296.875
1911255.756389,2018847.75,7.827648162841797,-2.386594772338867,5.6157989501953125,-2.0,-0.7175572514533997,-1.2061069011688232,3157.913330078125,1356.0,1395.6043701171875,202.1052703857422,296.875
1911255.7683829,2018855.5,7.76540994644165,-2.3770196437835693,5.567923545837402,-2.1984732151031494,-0.25954198837280273,-1.1755725145339966,3157.913330078125,1356.0,1392.6739501953125,202.1052703857422,296.875
1911255.7827601,2018863.375,7.935368061065674,-2.307600259780884,5.644524097442627,-1.389312982559204,-0.15267175436019897,-1.2519084215164185,3157.913330078125,1356.0,1394.13916015625,202.1052703857422,296.875
1911255.7831494,2018871.125,7.885098934173584,-2.314781665802002,5.737881660461426,0.7175572514533997,-0.8396946787834167,-1.6183205842971802,3157.913330078125,1356.0,1397.80224609375,202.1052703857422,296.875
1911255.7907685,2018879.0,7.827648162841797,-2.3602633476257324,5.687612056732178,1.3587785959243774,-0.8091602921485901,-1.6335878372192383,3157.913330078125,1356.0,1403.6629638671875,202.1052703857422,296.875
1911255.7977126,2018886.75,7.801316738128662,-2.365050792694092,5.675643444061279,0.42748090624809265,-0.6870229244232178,-1.7404580116271973,3157.913330078125,1356.0,1409.5238037109375,202.1052703857422,296.875
1911255.8076797,2018894.625,7.873129844665527,-2.3674447536468506,5.761819362640381,0.04580152779817581,-0.5954198241233826,-1.801526665687561,3157.913330078125,1356.0,1416.849853515625,202.1052703857422,296.875
1911255.8179758,2018902.375,7.839616775512695,-2.3698384761810303,5.778575897216797,-0.3358778655529022,-0.4122137427330017,-1.2824426889419556,3157.913330078125,1356.0,1423.4432373046875,202.1052703857422,296.875
1911255.8256494,2018910.25,7.7725911140441895,-2.4177138805389404,5.71633768081665,-0.35114502906799316,-0.47328245639801025,-1.0687023401260376,3157.913330078125,1356.0,1426.3736572265625,202.1052703857422,296.875
1911255.8365869,2018918.0,7.868342399597168,-2.3195691108703613,5.7474565505981445,-0.5343511700630188,-0.7480915784835815,-0.8091602921485901,3157.913330078125,1356.0,1423.4432373046875,202.1052703857422,296.875
1911255.836995,2018925.875,7.8228607177734375,-2.362657070159912,5.733093738555908,-1.0687023401260376,-1.0687023401260376,-0.9923664331436157,3153.37451171875,1357.0,1419.7802734375,202.1052703857422,296.875
1911255.8493534,2018933.625,7.782166481018066,-2.412926435470581,5.6732497215271,-1.0992366075515747,-1.694656491279602,-1.14503812789917,3153.37451171875,1357.0,1414.6519775390625,202.1052703857422,296.875
1911255.8552888,2018941.5,7.786953926086426,-2.4153201580047607,5.654099464416504,-0.38167938590049744,-1.5572519302368164,-1.160305380821228,3153.37451171875,1357.0,1408.791259765625,202.1052703857422,296.875
1911255.8633023,2018949.25,7.827648162841797,-2.365050792694092,5.656493186950684,-0.442748099565506,-1.496183156967163,-1.2977099418640137,3153.37451171875,1357.0,1402.19775390625,202.1052703857422,296.875
1911255.8743318,2018957.125,7.851585865020752,-2.314781665802002,5.67085599899292,-0.6870229244232178,-1.3435114622116089,-1.2213740348815918,3148.8486328125,1358.0,1397.80224609375,202.1052703857422,296.875
1911255.8748843,2018964.875,7.853979587554932,-2.3099939823150635,5.654099464416504,-0.9618320465087891,-1.3435114622116089,-1.2824426889419556,3153.37451171875,1357.0,1394.13916015625,202.1052703857422,296.875
1911255.8921969,2018972.75,7.839616775512695,-2.314781665802002,5.642130374908447,-1.2213740348815918,-1.0229008197784424,-1.7251908779144287,3153.37451171875,1357.0,1390.4761962890625,202.1052703857422,296.875
1911255.8925545,2018980.5,7.832435607910156,-2.3243565559387207,5.67085599899292,-0.885496199131012,-1.0687023401260376,-1.8167939186096191,3153.37451171875,1357.0,1388.2784423828125,202.1052703857422,296.875
1911255.8981806,2018988.375,7.834829330444336,-2.355475664138794,5.682824611663818,-0.8396946787834167,-0.7633587718009949,-1.465648889541626,3153.37451171875,1357.0,1388.2784423828125,202.1052703857422,296.875
1911255.9131221,2018996.125,7.81567907333374,-2.379413604736328,5.680430889129639,-0.9007633328437805,-1.1145038604736328,-1.8625954389572144,3153.37451171875,1357.0,1389.7435302734375,202.1052703857422,296.875
1911255.9170957,2019004.0,7.830041885375977,-2.3698384761810303,5.663674354553223,-1.160305380821228,-0.6870229244232178,-1.6641221046447754,3153.37451171875,1357.0,1391.208740234375,202.1052703857422,296.875
1911255.929266,2019011.75,7.839616775512695,-2.379413604736328,5.704368591308594,-1.3282443284988403,-0.7938931584358215,-1.694656491279602,3148.8486328125,1358.0,1390.4761962890625,202.1052703857422,296.875
1911255.9295113,2019019.625,7.851585865020752,-2.3937761783599854,5.699581146240234,-1.3282443284988403,-0.9160305261611938,-1.3435114622116089,3148.8486328125,1358.0,1391.94140625,202.1052703857422,296.875
1911255.9401103,2019027.375,7.8132853507995605,-2.4177138805389404,5.668461799621582,-1.2824426889419556,-0.7633587718009949,-1.2977099418640137,3153.37451171875,1357.0,1394.871826171875,202.1052703857422,296.875
1911255.9521691,2019035.25,7.827648162841797,-2.405745029449463,5.6732497215271,-0.885496199131012,-0.7022900581359863,-0.9618320465087891,3148.8486328125,1358.0,1396.3370361328125,202.1052703857422,296.875
1911255.9540994,2019043.0,7.808497905731201,-2.3913824558258057,5.682824611663818,-0.9465649127960205,-0.9770992398262024,-1.0839694738388062,3148.8486328125,1358.0,1394.871826171875,202.1052703857422,296.875
1911255.970387,2019050.875,7.820466995239258,-2.365050792694092,5.661280632019043,-1.038167953491211,-0.8549618124961853,-1.3282443284988403,3148.8486328125,1358.0,1392.6739501953125,202.1052703857422,296.875
1911255.9707979,2019058.625,7.825254440307617,-2.365050792694092,5.637342929840088,-0.7480915784835815,-0.7786259651184082,-1.2824426889419556,3148.8486328125,1358.0,1390.4761962890625,202.1052703857422,296.875
1911255.9791419,2019066.5,7.846798419952393,-2.3411130905151367,5.656493186950684,-1.0076335668563843,-0.4580152630805969,-1.160305380821228,3148.8486328125,1358.0,1389.010986328125,202.1052703857422,296.875
1911255.9930146,2019074.25,7.861160755157471,-2.3578696250915527,5.666068077087402,-1.0839694738388062,-0.47328245639801025,-1.14503812789917,3144.335693359375,1359.0,1389.010986328125,202.1052703857422,296.875
1911256.0029572,2019082.125,7.832435607910156,-2.37223219871521,5.644524097442627,-1.465648889541626,-0.4885496199131012,-1.0229008197784424,3148.8486328125,1358.0,1391.208740234375,202.1052703857422,296.875
1911256.0091408,2019089.875,7.81567907333374,-2.396169900894165,5.644524097442627,-1.496183156967163,-0.7175572514533997,-1.3587785959243774,3144.335693359375,1359.0,1394.871826171875,202.1052703857422,296.875
1911256.0109778,2019097.75,7.849192142486572,-2.3842010498046875,5.680430889129639,-0.9160305261611938,-0.580152690410614,-1.3435114622116089,3148.8486328125,1358.0,1397.069580078125,202.1052703857422,296.875
1911256.0240901,2019105.5,7.8061041831970215,-2.439257860183716,5.687612056732178,-0.8244274854660034,-0.8702290058135986,-1.5419846773147583,3148.8486328125,1358.0,1399.2674560546875,202.1052703857422,296.875
1911256.056807,2019113.375,7.76540994644165,-2.4679832458496094,5.687612056732178,-0.290076345205307,-1.160305380821228,-1.7862595319747925,3144.335693359375,1359.0,1401.4652099609375,202.1052703857422,296.875
1911256.0571149,2019121.125,7.794135093688965,-2.4105327129364014,5.701974868774414,-0.35114502906799316,-1.0839694738388062,-1.465648889541626,3144.335693359375,1359.0,1401.4652099609375,202.1052703857422,296.875
1911256.0575059,2019129.0,7.856373310089111,-2.3578696250915527,5.709156036376953,-0.42748090624809265,-0.9160305261611938,-1.2824426889419556,3144.335693359375,1359.0,1403.6629638671875,202.1052703857422,296.875
1911256.0578937,2019136.75,7.827648162841797,-2.4009575843811035,5.656493186950684,-1.0839694738388062,-1.3435114622116089,-1.2977099418640137,3148.8486328125,1358.0,1404.3956298828125,202.1052703857422,296.875
1911256.059813,2019144.625,7.81807279586792,-2.381807327270508,5.642130374908447,-0.7633587718009949,-1.267175555229187,-1.4351145029067993,3144.335693359375,1359.0,1406.5933837890625,202.1052703857422,296.875
1911256.0601511,2019152.375,7.81567907333374,-2.388988733291626,5.644524097442627,-0.7480915784835815,-1.1755725145339966,-1.3282443284988403,3148.8486328125,1358.0,1405.86083984375,202.1052703857422,296.875
1911256.075971,2019160.25,7.8228607177734375,-2.379413604736328,5.6493120193481445,-0.4580152630805969,-1.267175555229187,-1.465648889541626,3144.335693359375,1359.0,1405.128173828125,202.1052703857422,296.875
1911256.0838559,2019168.0,7.887492656707764,-2.329144239425659,5.642130374908447,-1.3129770755767822,-0.5190839767456055,-0.8549618124961853,3144.335693359375,1359.0,1405.128173828125,202.1052703857422,296.875
1911256.0863271,2019175.875,7.844404697418213,-2.329144239425659,5.596648693084717,-1.5419846773147583,-0.732824444770813,-1.3435114622116089,3144.335693359375,1359.0,1402.19775390625,202.1052703857422,296.875
1911256.1017519,2019183.625,7.842010974884033,-2.331537961959839,5.6062235832214355,-1.9541984796524048,-0.1221374049782753,-1.1908396482467651,3144.335693359375,1359.0,1398.5347900390625,202.1052703857422,296.875
1911256.1109414,2019191.5,7.8132853507995605,-2.388988733291626,5.642130374908447,-1.3587785959243774,-0.35114502906799316,-1.5572519302368164,3139.835693359375,1360.0,1394.871826171875,202.1052703857422,296.875
1911256.115719,2019199.25,7.7725911140441895,-2.429682731628418,5.644524097442627,-0.8549618124961853,-0.5190839767456055,-1.6335878372192383,3144.335693359375,1359.0,1391.94140625,202.1052703857422,296.875
1911256.1217501,2019207.125,7.7893476486206055,-2.4272890090942383,5.637342929840088,-0.09160305559635162,-0.6564885377883911,-1.770992398262024,3144.335693359375,1359.0,1391.94140625,202.1052703857422,296.875
1911256.1221401,2019214.875,7.846798419952393,-2.3698384761810303,5.6732497215271,-0.06106870248913765,-0.6259542107582092,-1.3587785959243774,3144.335693359375,1359.0,1391.208740234375,202.1052703857422,296.875
1911256.1377336,2019222.75,7.834829330444336,-2.338719367980957,5.67085599899292,-0.5038167834281921,-0.5954198241233826,-1.5114504098892212,3135.3486328125,1361.0,1391.94140625,202.1052703857422,296.875
1911256.14226,2019230.5,7.837223052978516,-2.3363256454467773,5.6493120193481445,-0.7786259651184082,-0.4580152630805969,-1.7404580116271973,3139.835693359375,1360.0,1393.4066162109375,202.1052703857422,296.875
1911256.1645412,2019238.375,7.782166481018066,-2.3985636234283447,5.666068077087402,-0.8702290058135986,-0.5038167834281921,-1.4351145029067993,3135.3486328125,1361.0,1397.80224609375,202.1052703857422,296.875
1911256.1676771,2019246.125,7.801316738128662,-2.4272890090942383,5.639736652374268,-0.7175572514533997,-0.9312977194786072,-1.5572519302368164,3139.835693359375,1360.0,1402.19775390625,202.1052703857422,296.875
1911256.1682595,2019254.0,7.849192142486572,-2.3674447536468506,5.644524097442627,-0.442748099565506,-0.7938931584358215,-1.801526665687561,3130.874267578125,1362.0,1404.3956298828125,202.1052703857422,296.875
1911256.1898759,2019261.75,7.849192142486572,-2.365050792694092,5.651705741882324,-1.3587785959243774,-0.38167938590049744,-1.496183156967163,3139.835693359375,1360.0,1403.6629638671875,202.1052703857422,296.875
1911256.1917777,2019269.625,7.873129844665527,-2.314781665802002,5.663674354553223,-1.8473281860351562,-0.4122137427330017,-0.7938931584358215,3139.835693359375,1360.0,1402.930419921875,202.1052703857422,296.875
1911256.1977027,2019277.375,7.830041885375977,-2.381807327270508,5.666068077087402,-1.694656491279602,-0.442748099565506,-1.160305380821228,3135.3486328125,1361.0,1402.19775390625,202.1052703857422,296.875
1911256.2055002,2019285.25,7.803710460662842,-2.436864137649536,5.690005779266357,-0.8702290058135986,-1.0687023401260376,-1.3587785959243774,3135.3486328125,1361.0,1400.7325439453125,202.1052703857422,296.875
1911256.206069,2019293.0,7.803710460662842,-2.4416518211364746,5.6732497215271,-0.5954198241233826,-0.9465649127960205,-1.587786316871643,3139.835693359375,1360.0,1396.3370361328125,202.1052703857422,296.875
1911256.2328078,2019300.875,7.808497905731201,-2.439257860183716,5.668461799621582,0.0,-1.3740458488464355,-1.1755725145339966,3135.3486328125,1361.0,1394.13916015625,202.1052703857422,296.875
1911256.2361163,2019308.625,7.825254440307617,-2.355475664138794,5.656493186950684,0.04580152779817581,-1.1908396482467651,-1.2061069011688232,3135.3486328125,1361.0,1394.871826171875,202.1052703857422,296.875
1911256.2372282,2019316.5,7.913824081420898,-2.3028125762939453,5.654099464416504,-1.267175555229187,-0.6259542107582092,-1.2213740348815918,3130.874267578125,1362.0,1397.069580078125,202.1052703857422,296.875
1911256.2552461,2019324.25,7.868342399597168,-2.331537961959839,5.690005779266357,-1.1908396482467651,-0.4885496199131012,-1.2977099418640137,3135.3486328125,1361.0,1397.069580078125,202.1052703857422,296.875
1911256.2558751,2019332.125,7.791741371154785,-2.42010760307312,5.694793701171875,-1.0534350872039795,-1.2061069011688232,-1.14503812789917,3135.3486328125,1361.0,1397.80224609375,202.1052703857422,296.875
1911256.2566693,2019339.875,7.7893476486206055,-2.4416518211364746,5.680430889129639,-0.09160305559635162,-1.3435114622116089,-1.3129770755767822,3135.3486328125,1361.0,1398.5347900390625,202.1052703857422,296.875
1911256.2576488,2019347.75,7.746259689331055,-2.4320766925811768,5.67085599899292,0.35114502906799316,-1.3740458488464355,-1.587786316871643,3130.874267578125,1362.0,1400.7325439453125,202.1052703857422,296.875
1911256.2712101,2019355.5,7.786953926086426,-2.4009575843811035,5.709156036376953,0.42748090624809265,-1.14503812789917,-1.4809160232543945,3135.3486328125,1361.0,1402.19775390625,202.1052703857422,296.875
1911256.285425,2019363.375,7.944942951202393,-2.240574598312378,5.678037166595459,-0.38167938590049744,-0.9770992398262024,-1.496183156967163,3135.3486328125,1361.0,1401.4652099609375,202.1052703857422,296.875
1911256.2863223,2019371.125,7.894673824310303,-2.2190306186676025,5.6732497215271,-0.9312977194786072,-0.6259542107582092,-1.5114504098892212,3130.874267578125,1362.0,1403.6629638671875,202.1052703857422,296.875
1911256.2908499,2019379.0,7.803710460662842,-2.3339316844940186,5.654099464416504,-0.38167938590049744,-0.7938931584358215,-1.8167939186096191,3130.874267578125,1362.0,1405.128173828125,202.1052703857422,296.875
1911256.3032404,2019386.75,7.751047134399414,-2.412926435470581,5.666068077087402,0.015267175622284412,-0.9923664331436157,-1.8167939186096191,3135.3486328125,1361.0,1407.3260498046875,202.1052703857422,296.875
1911256.3070056,2019394.625,7.7965288162231445,-2.4584081172943115,5.735487937927246,0.6717557311058044,-1.2519084215164185,-1.5267175436019897,3130.874267578125,1362.0,1410.2564697265625,202.1052703857422,593.75
1911256.3183482,2019402.375,7.830041885375977,-2.4009575843811035,5.72112512588501,0.7633587718009949,-1.4045801162719727,-1.7862595319747925,3135.3486328125,1361.0,1410.989013671875,202.1052703857422,593.75
1911256.3315468,2019410.25,7.839616775512695,-2.3770196437835693,5.733093738555908,0.7786259651184082,-1.160305380821228,-1.770992398262024,3130.874267578125,1362.0,1409.5238037109375,202.1052703857422,593.75
1911256.3325954,2019418.0,7.961699485778809,-2.2357869148254395,5.656493186950684,-1.0687023401260376,-0.38167938590049744,-1.267175555229187,3130.874267578125,1362.0,1408.05859375,202.1052703857422,593.75
1911256.3374867,2019425.875,7.81807279586792,-2.264512300491333,5.6493120193481445,-2.6259541511535645,-0.1679389327764511,-0.6717557311058044,3126.412841796875,1363.0,1405.86083984375,202.1052703857422,593.75
1911256.3526403,2019433.625,7.729503154754639,-2.4105327129364014,5.6493120193481445,-1.8320610523223877,-0.10687022656202316,-1.160305380821228,3130.874267578125,1362.0,1400.7325439453125,202.1052703857422,593.75
1911256.354602,2019441.5,7.774984836578369,-2.46319580078125,5.7474565505981445,-0.07633587718009949,-0.8396946787834167,-1.4198473691940308,3130.874267578125,1362.0,1398.5347900390625,202.1052703857422,593.75
1911256.3729304,2019449.25,7.774984836578369,-2.429682731628418,5.780969619750977,1.3435114622116089,-1.3587785959243774,-1.6488549709320068,3130.874267578125,1362.0,1393.4066162109375,202.1052703857422,593.75
1911256.3745226,2019457.125,7.801316738128662,-2.388988733291626,5.737881660461426,1.4503816366195679,-1.267175555229187,-1.0534350872039795,3130.874267578125,1362.0,1392.6739501953125,202.1052703857422,593.75
1911256.375271,2019464.875,7.81807279586792,-2.3674447536468506,5.735487937927246,-0.04580152779817581,-1.572519063949585,-1.1145038604736328,3126.412841796875,1363.0,1392.6739501953125,202.1052703857422,593.75
1911256.3986713,2019472.75,7.851585865020752,-2.321962833404541,5.711549758911133,-1.3587785959243774,-1.0839694738388062,-0.9618320465087891,3126.412841796875,1363.0,1393.4066162109375,202.1052703857422,593.75
1911256.400477,2019480.5,7.779772758483887,-2.3937761783599854,5.704368591308594,-1.893129825592041,-1.1297709941864014,-0.9007633328437805,3130.874267578125,1362.0,1393.4066162109375,202.1052703857422,593.75
1911256.4022258,2019488.375,7.786953926086426,-2.439257860183716,5.694793701171875,-1.9694656133651733,-1.1755725145339966,-0.9923664331436157,3126.412841796875,1363.0,1391.94140625,202.1052703857422,593.75
1911256.4379978,2019496.125,7.803710460662842,-2.446439266204834,5.637342929840088,-0.8702290058135986,-1.572519063949585,-1.1908396482467651,3126.412841796875,1363.0,1391.208740234375,202.1052703857422,593.75
1911256.4384304,2019504.0,7.889886379241943,-2.4105327129364014,5.6062235832214355,-1.5572519302368164,-0.885496199131012,-0.7480915784835815,3126.412841796875,1363.0,1390.4761962890625,202.1052703857422,593.75
1911256.4395097,2019511.75,7.887492656707764,-2.355475664138794,5.613405227661133,-1.893129825592041,-0.7022900581359863,-1.1908396482467651,3126.412841796875,1363.0,1389.010986328125,202.1052703857422,593.75
1911256.4571919,2019519.625,7.820466995239258,-2.4512267112731934,5.601436138153076,-1.267175555229187,-1.1908396482467651,-1.2519084215164185,3126.412841796875,1363.0,1388.2784423828125,202.1052703857422,593.75
1911256.4576564,2019527.375,7.8228607177734375,-2.4440455436706543,5.608617782592773,-0.4885496199131012,-1.496183156967163,-1.801526665687561,3121.9638671875,1364.0,1387.5457763671875,202.1052703857422,593.75
1911256.4581491,2019535.25,7.81807279586792,-2.4105327129364014,5.6325554847717285,0.0,-1.6641221046447754,-2.0152671337127686,3121.9638671875,1364.0,1388.2784423828125,202.1052703857422,593.75
1911256.4631004,2019543.0,7.832435607910156,-2.365050792694092,5.611011505126953,0.30534350872039795,-1.8167939186096191,-1.7099236249923706,3121.9638671875,1364.0,1389.010986328125,202.1052703857422,593.75
1911256.464404,2019550.875,7.842010974884033,-2.3411130905151367,5.637342929840088,0.09160305559635162,-1.5114504098892212,-1.1755725145339966,3121.9638671875,1364.0,1390.4761962890625,202.1052703857422,593.75
1911256.4716183,2019558.625,7.825254440307617,-2.3363256454467773,5.618192672729492,0.3358778655529022,-1.5572519302368164,-1.2061069011688232,3121.9638671875,1364.0,1392.6739501953125,202.1052703857422,593.75
1911256.4910407,2019566.5,7.810891628265381,-2.403351306915283,5.630161762237549,0.580152690410614,-2.1526718139648438,-1.7251908779144287,3117.527587890625,1365.0,1394.871826171875,202.1052703857422,593.75
1911256.494213,2019574.25,7.81567907333374,-2.3770196437835693,5.603829860687256,0.6412213444709778,-2.0610687732696533,-1.1145038604736328,3121.9638671875,1364.0,1395.6043701171875,202.1052703857422,593.75
1911256.495348,2019582.125,7.849192142486572,-2.381807327270508,5.620586395263672,0.6412213444709778,-1.7251908779144287,-0.885496199131012,3126.412841796875,1363.0,1397.80224609375,202.1052703857422,593.75
1911256.5397795,2019589.875,7.923398971557617,-2.2669060230255127,5.5822858810424805,-0.6412213444709778,-0.7633587718009949,-0.9618320465087891,3121.9638671875,1364.0,1399.2674560546875,202.1052703857422,593.75
1911256.5493893,2019597.75,7.870736122131348,-2.2932376861572266,5.572710990905762,-0.8702290058135986,-0.5954198241233826,-1.038167953491211,3117.527587890625,1365.0,1399.2674560546875,202.1052703857422,593.75
1911256.5503492,2019605.5,7.834829330444336,-2.3363256454467773,5.589467525482178,-1.3282443284988403,-0.290076345205307,-1.267175555229187,3121.9638671875,1364.0,1399.2674560546875,202.1052703857422,210.9375
1911256.5513385,2019613.375,7.7965288162231445,-2.3842010498046875,5.620586395263672,-1.6030534505844116,-0.3664122223854065,-1.1145038604736328,3121.9638671875,1364.0,1401.4652099609375,202.1052703857422,210.9375
1911256.5519039,2019621.125,7.777379035949707,-2.3913824558258057,5.639736652374268,-1.3587785959243774,-0.3206106722354889,-1.0229008197784424,3121.9638671875,1364.0,1401.4652099609375,202.1052703857422,210.9375
1911256.5524195,2019629.0,7.856373310089111,-2.3363256454467773,5.639736652374268,-1.8473281860351562,-0.7633587718009949,-1.465648889541626,3117.527587890625,1365.0,1402.19775390625,202.1052703857422,210.9375
1911256.5527863,2019636.75,7.834829330444336,-2.3602633476257324,5.622980117797852,-1.6793893575668335,-0.3358778655529022,-1.5572519302368164,3117.527587890625,1365.0,1401.4652099609375,202.1052703857422,210.9375
1911256.5902842,2019644.625,7.808497905731201,-2.412926435470581,5.644524097442627,-1.3740458488464355,-0.6106870174407959,-1.6641221046447754,3117.527587890625,1365.0,1400.0,202.1052703857422,210.9375
1911256.5907981,2019652.375,7.8132853507995605,-2.422501564025879,5.654099464416504,-1.389312982559204,-0.8244274854660034,-1.7251908779144287,3117.527587890625,1365.0,1397.80224609375,202.1052703857422,210.9375
1911256.5920579,2019660.25,7.820466995239258,-2.388988733291626,5.6325554847717285,-1.2366411685943604,-0.7022900581359863,-1.8167939186096191,3117.527587890625,1365.0,1394.13916015625,202.1052703857422,210.9375
1911256.59295,2019668.0,7.77019739151001,-2.412926435470581,5.627768039703369,-1.2977099418640137,-0.4580152630805969,-1.6183205842971802,3117.527587890625,1365.0,1389.7435302734375,202.1052703857422,210.9375
1911256.5993587,2019675.875,7.8228607177734375,-2.3746259212493896,5.6062235832214355,-1.465648889541626,0.21374045312404633,-1.4809160232543945,3117.527587890625,1365.0,1390.4761962890625,202.1052703857422,210.9375
1911256.6005454,2019683.625,7.923398971557617,-2.3243565559387207,5.742669105529785,-1.1145038604736328,-0.9007633328437805,-1.7099236249923706,3117.527587890625,1365.0,1394.13916015625,202.1052703857422,210.9375
1911256.6016371,2019691.5,7.899461269378662,-2.348294496536255,5.76660680770874,0.42748090624809265,-1.2977099418640137,-1.6641221046447754,3117.527587890625,1365.0,1398.5347900390625,202.1052703857422,210.9375
1911256.6165442,2019699.25,7.784560203552246,-2.3913824558258057,5.704368591308594,0.19847328960895538,-1.389312982559204,-1.465648889541626,3117.527587890625,1365.0,1401.4652099609375,202.1052703857422,210.9375
1911256.6241991,2019707.125,7.853979587554932,-2.3435068130493164,5.701974868774414,-0.35114502906799316,-0.8549618124961853,-1.4809160232543945,3113.10400390625,1366.0,1405.86083984375,202.1052703857422,210.9375
1911256.6411836,2019714.875,7.846798419952393,-2.338719367980957,5.704368591308594,-0.5496183037757874,-0.7938931584358215,-1.3587785959243774,3117.527587890625,1365.0,1409.5238037109375,202.1052703857422,210.9375
1911256.6425637,2019722.75,7.794135093688965,-2.388988733291626,5.6732497215271,-0.7938931584358215,-0.7480915784835815,-1.6488549709320068,3113.10400390625,1366.0,1412.4542236328125,202.1052703857422,210.9375
1911256.6525872,2019730.5,7.803710460662842,-2.381807327270508,5.694793701171875,-0.8702290058135986,-0.6259542107582092,-1.14503812789917,3117.527587890625,1365.0,1413.186767578125,202.1052703857422,210.9375
1911256.6580641,2019738.375,7.803710460662842,-2.42010760307312,5.711549758911133,-0.3664122223854065,-1.2061069011688232,-1.0076335668563843,3113.10400390625,1366.0,1414.6519775390625,202.1052703857422,210.9375
1911256.6648274,2019746.125,7.798923015594482,-2.42010760307312,5.711549758911133,-0.04580152779817581,-1.8625954389572144,-1.0687023401260376,3117.527587890625,1365.0,1414.6519775390625,202.1052703857422,210.9375
1911256.66552,2019754.0,7.763016223907471,-2.422501564025879,5.661280632019043,-0.06106870248913765,-1.5114504098892212,-1.3129770755767822,3113.10400390625,1366.0,1412.4542236328125,202.1052703857422,210.9375
1911256.6821642,2019761.75,7.798923015594482,-2.3913824558258057,5.682824611663818,0.7175572514533997,-1.8625954389572144,-1.5419846773147583,3113.10400390625,1366.0,1406.5933837890625,202.1052703857422,210.9375
1911256.6905025,2019769.625,7.8061041831970215,-2.365050792694092,5.666068077087402,0.6106870174407959,-1.8625954389572144,-1.5419846773147583,3108.69287109375,1367.0,1401.4652099609375,202.1052703857422,210.9375
1911256.7178937,2019777.375,7.801316738128662,-2.355475664138794,5.678037166595459,0.42748090624809265,-1.893129825592041,-1.496183156967163,3113.10400390625,1366.0,1397.069580078125,202.1052703857422,210.9375
1911256.7189843,2019785.25,7.7965288162231445,-2.3530819416046143,5.685218334197998,0.39694657921791077,-2.076335906982422,-1.2061069011688232,3113.10400390625,1366.0,1394.871826171875,202.1052703857422,210.9375
1911256.7201832,2019793.0,7.837223052978516,-2.3243565559387207,5.654099464416504,0.04580152779817581,-1.9694656133651733,-1.5114504098892212,3108.69287109375,1367.0,1392.6739501953125,202.1052703857422,210.9375
1911256.7210733,2019800.875,7.9042487144470215,-2.2669060230255127,5.6493120193481445,-0.6259542107582092,-1.4045801162719727,-1.4351145029067993,3108.69287109375,1367.0,1390.4761962890625,202.1052703857422,210.9375
1911256.7216342,2019808.625,7.925793170928955,-2.250149726867676,5.675643444061279,-1.0229008197784424,-0.9770992398262024,-1.2824426889419556,3108.69287109375,1367.0,1389.7435302734375,202.1052703857422,210.9375
1911256.7368993,2019816.5,7.885098934173584,-2.321962833404541,5.656493186950684,-1.4045801162719727,-1.2213740348815918,-1.4198473691940308,3108.69287109375,1367.0,1389.010986328125,202.1052703857422,210.9375
1911256.7412997,2019824.25,7.892280101776123,-2.345900774002075,5.661280632019043,-1.5572519302368164,-0.5343511700630188,-1.0687023401260376,3108.69287109375,1367.0,1387.5457763671875,202.1052703857422,210.9375
1911256.743014,2019832.125,7.853979587554932,-2.3435068130493164,5.656493186950684,-1.7557251453399658,-0.5648854970932007,-1.4198473691940308,3108.69287109375,1367.0,1390.4761962890625,202.1052703857422,210.9375
1911256.7553343,2019839.875,7.81567907333374,-2.4009575843811035,5.678037166595459,-1.267175555229187,-0.9160305261611938,-1.3129770755767822,3108.69287109375,1367.0,1394.13916015625,202.1052703857422,210.9375
1911256.7750493,2019847.75,7.786953926086426,-2.403351306915283,5.685218334197998,-0.6870229244232178,-1.267175555229187,-1.2061069011688232,3104.29443359375,1368.0,1399.2674560546875,202.1052703857422,210.9375
1911256.7789272,2019855.5,7.839616775512695,-2.3674447536468506,5.654099464416504,-0.7022900581359863,-0.8702290058135986,-1.0839694738388062,3108.69287109375,1367.0,1403.6629638671875,202.1052703857422,210.9375
1911256.7805636,2019863.375,7.851585865020752,-2.331537961959839,5.666068077087402,-1.0229008197784424,-0.3206106722354889,-0.9465649127960205,3108.69287109375,1367.0,1406.5933837890625,202.1052703857422,210.9375
1911256.7823756,2019871.125,7.885098934173584,-2.2956314086914062,5.6493120193481445,-1.801526665687561,-0.4580152630805969,-0.885496199131012,3108.69287109375,1367.0,1409.5238037109375,202.1052703857422,265.625
1911256.8028296,2019879.0,7.880311012268066,-2.314781665802002,5.656493186950684,-2.183206081390381,-0.7022900581359863,-1.0992366075515747,3108.69287109375,1367.0,1411.7215576171875,202.1052703857422,265.625
1911256.8039282,2019886.75,7.8132853507995605,-2.405745029449463,5.663674354553223,-2.351145029067993,-0.21374045312404633,-1.5267175436019897,3108.69287109375,1367.0,1413.91943359375,202.1052703857422,265.625
1911256.8367638,2019894.625,7.784560203552246,-2.4105327129364014,5.682824611663818,-2.3358778953552246,-0.35114502906799316,-1.2977099418640137,3104.29443359375,1368.0,1413.186767578125,202.1052703857422,265.625
1911256.837378,2019902.375,7.798923015594482,-2.4009575843811035,5.656493186950684,-1.6488549709320068,-0.7175572514533997,-1.2824426889419556,3104.29443359375,1368.0,1409.5238037109375,202.1052703857422,265.625
1911256.8390199,2019910.25,7.832435607910156,-2.4153201580047607,5.658886909484863,-1.770992398262024,-0.732824444770813,-1.1145038604736328,3104.29443359375,1368.0,1407.3260498046875,202.1052703857422,265.625
1911256.8644642,2019918.0,7.825254440307617,-2.412926435470581,5.658886909484863,-1.389312982559204,-0.5954198241233826,-1.2519084215164185,3108.69287109375,1367.0,1405.128173828125,202.1052703857422,265.625
1911256.8658275,2019925.875,7.865948677062988,-2.362657070159912,5.685218334197998,-1.5419846773147583,-0.7786259651184082,-1.160305380821228,3104.29443359375,1368.0,1402.19775390625,202.1052703857422,265.625
1911256.8671331,2019941.5,7.8132853507995605,-2.4584081172943115,5.642130374908447,-0.9923664331436157,-1.3282443284988403,-1.3740458488464355,3104.29443359375,1368.0,1397.80224609375,202.1052703857422,265.625
1911256.8686031,2019949.25,7.808497905731201,-2.439257860183716,5.642130374908447,-0.3664122223854065,-1.0992366075515747,-1.7251908779144287,3099.908203125,1369.0,1397.069580078125,202.1052703857422,265.625
1911256.8691568,2019957.125,7.791741371154785,-2.4105327129364014,5.6325554847717285,-0.13740457594394684,-1.4351145029067993,-1.4198473691940308,3099.908203125,1369.0,1397.80224609375,202.1052703857422,265.625
1911256.8947732,2019964.875,7.901854991912842,-2.314781665802002,5.637342929840088,-0.38167938590049744,-0.6870229244232178,-1.3129770755767822,3104.29443359375,1368.0,1398.5347900390625,202.1052703857422,265.625
1911256.8961004,2019972.75,7.925793170928955,-2.298025131225586,5.6325554847717285,-1.0992366075515747,-0.5190839767456055,-0.9618320465087891,3099.908203125,1369.0,1400.7325439453125,202.1052703857422,265.625
1911256.8975058,2019980.5,7.849192142486572,-2.3698384761810303,5.637342929840088,-1.7099236249923706,-0.5038167834281921,-0.9618320465087891,3104.29443359375,1368.0,1402.930419921875,202.1052703857422,265.625
1911256.8988953,2019988.375,7.779772758483887,-2.4344704151153564,5.644524097442627,-1.2366411685943604,-0.9007633328437805,-1.4809160232543945,3099.908203125,1369.0,1404.3956298828125,202.1052703857422,265.625
1911256.9333162,2019996.125,7.782166481018066,-2.4655895233154297,5.639736652374268,-0.6870229244232178,-0.9770992398262024,-1.4045801162719727,3099.908203125,1369.0,1402.930419921875,202.1052703857422,265.625
1911256.9344627,2020004.0,7.76540994644165,-2.436864137649536,5.651705741882324,-0.04580152779817581,-1.6793893575668335,-1.3587785959243774,3099.908203125,1369.0,1405.128173828125,202.1052703857422,265.625
1911256.9358263,2020011.75,7.7725911140441895,-2.4081387519836426,5.6493120193481445,0.47328245639801025,-1.0076335668563843,-1.038167953491211,3095.534423828125,1370.0,1404.3956298828125,202.1052703857422,265.625
1911256.9362805,2020019.625,7.81567907333374,-2.3530819416046143,5.596648693084717,0.3358778655529022,-1.0992366075515747,-1.1755725145339966,3099.908203125,1369.0,1405.128173828125,202.1052703857422,265.625
1911256.9687473,2020027.375,7.913824081420898,-2.2956314086914062,5.603829860687256,-0.7786259651184082,-0.7175572514533997,-1.2213740348815918,3095.534423828125,1370.0,1405.86083984375,202.1052703857422,265.625
1911256.9697501,2020035.25,7.889886379241943,-2.298025131225586,5.644524097442627,-1.5419846773147583,-0.6106870174407959,-1.4198473691940308,3095.534423828125,1370.0,1406.5933837890625,202.1052703857422,265.625
1911256.9713625,2020043.0,7.784560203552246,-2.42010760307312,5.608617782592773,-1.1908396482467651,-0.732824444770813,-1.5267175436019897,3099.908203125,1369.0,1407.3260498046875,202.1052703857422,265.625
1911256.9725267,2020050.875,7.791741371154785,-2.4512267112731934,5.642130374908447,-0.442748099565506,-0.9618320465087891,-1.7862595319747925,3095.534423828125,1370.0,1405.86083984375,202.1052703857422,265.625
1911256.9913782,2020058.625,7.830041885375977,-2.429682731628418,5.658886909484863,-0.04580152779817581,-1.2366411685943604,-1.801526665687561,3099.908203125,1369.0,1402.930419921875,202.1052703857422,265.625
1911256.9931211,2020066.5,7.827648162841797,-2.4081387519836426,5.634949207305908,-0.22900763154029846,-1.0839694738388062,-1.801526665687561,3095.534423828125,1370.0,1402.930419921875,202.1052703857422,265.625
1911256.9985753,2020074.25,7.882704734802246,-2.3363256454467773,5.639736652374268,-0.3206106722354889,-0.6564885377883911,-1.5114504098892212,3099.908203125,1369.0,1402.19775390625,202.1052703857422,265.625
1911257.0037585,2020082.125,7.870736122131348,-2.362657070159912,5.630161762237549,-0.885496199131012,-0.8396946787834167,-1.465648889541626,3099.908203125,1369.0,1402.19775390625,202.1052703857422,210.9375
1911257.0064227,2020089.875,7.873129844665527,-2.355475664138794,5.620586395263672,-1.2213740348815918,-0.3358778655529022,-1.6030534505844116,3095.534423828125,1370.0,1400.7325439453125,202.1052703857422,210.9375
1911257.009282,2020097.75,7.870736122131348,-2.379413604736328,5.658886909484863,-1.5114504098892212,-0.42748090624809265,-1.6030534505844116,3095.534423828125,1370.0,1400.0,202.1052703857422,210.9375
1911257.0389307,2020105.5,7.846798419952393,-2.403351306915283,5.656493186950684,-1.0076335668563843,-0.4580152630805969,-2.0152671337127686,3095.534423828125,1370.0,1396.3370361328125,202.1052703857422,210.9375
1911257.0546384,2020113.375,7.794135093688965,-2.4081387519836426,5.642130374908447,-0.6259542107582092,-0.5343511700630188,-1.801526665687561,3095.534423828125,1370.0,1392.6739501953125,202.1052703857422,210.9375
1911257.055084,2020121.125,7.786953926086426,-2.4009575843811035,5.661280632019043,0.07633587718009949,-0.8549618124961853,-1.6488549709320068,3095.534423828125,1370.0,1391.94140625,202.1052703857422,210.9375
1911257.0555503,2020129.0,7.801316738128662,-2.3698384761810303,5.694793701171875,0.2442748099565506,-0.8549618124961853,-1.7251908779144287,3091.1728515625,1371.0,1391.94140625,202.1052703857422,210.9375
1911257.056141,2020136.75,7.8228607177734375,-2.314781665802002,5.682824611663818,0.15267175436019897,-0.9312977194786072,-1.694656491279602,3095.534423828125,1370.0,1393.4066162109375,202.1052703857422,210.9375
1911257.0566985,2020144.625,7.858767032623291,-2.3171753883361816,5.678037166595459,-0.6259542107582092,-0.9160305261611938,-1.3435114622116089,3095.534423828125,1370.0,1394.871826171875,202.1052703857422,210.9375
1911257.0661964,2020152.375,7.827648162841797,-2.3746259212493896,5.71873140335083,-0.7022900581359863,-1.1908396482467651,-1.4198473691940308,3095.534423828125,1370.0,1397.069580078125,202.1052703857422,210.9375
1911257.0717266,2020160.25,7.827648162841797,-2.412926435470581,5.71633768081665,-0.09160305559635162,-1.5267175436019897,-1.1297709941864014,3091.1728515625,1371.0,1398.5347900390625,202.1052703857422,210.9375
1911257.0842119,2020168.0,7.8061041831970215,-2.4009575843811035,5.682824611663818,-0.6106870174407959,-1.3740458488464355,-1.038167953491211,3095.534423828125,1370.0,1400.0,202.1052703857422,210.9375
1911257.0946261,2020175.875,7.820466995239258,-2.4009575843811035,5.685218334197998,-0.5343511700630188,-1.465648889541626,-1.3282443284988403,3091.1728515625,1371.0,1401.4652099609375,202.1052703857422,210.9375
1911257.1056402,2020183.625,7.8132853507995605,-2.4081387519836426,5.687612056732178,-0.21374045312404633,-1.4198473691940308,-1.3740458488464355,3091.1728515625,1371.0,1402.930419921875,202.1052703857422,210.9375
1911257.1117762,2020191.5,7.844404697418213,-2.37223219871521,5.6732497215271,-0.35114502906799316,-1.6183205842971802,-1.3435114622116089,3086.82373046875,1372.0,1404.3956298828125,202.1052703857422,210.9375
1911257.112136,2020199.25,7.9473371505737305,-2.28126859664917,5.654099464416504,-1.6488549709320068,-0.5038167834281921,-1.2213740348815918,3091.1728515625,1371.0,1402.930419921875,202.1052703857422,210.9375
1911257.1235167,2020207.125,7.832435607910156,-2.3435068130493164,5.666068077087402,-2.076335906982422,-0.8702290058135986,-1.4351145029067993,3091.1728515625,1371.0,1401.4652099609375,202.1052703857422,210.9375
1911257.1355134,2020214.875,7.81807279586792,-2.388988733291626,5.661280632019043,-1.7557251453399658,-0.8244274854660034,-1.694656491279602,3091.1728515625,1371.0,1400.7325439453125,202.1052703857422,210.9375
1911257.1358853,2020222.75,7.7965288162231445,-2.4081387519836426,5.651705741882324,-1.3740458488464355,-0.7022900581359863,-1.8625954389572144,3086.82373046875,1372.0,1398.5347900390625,202.1052703857422,210.9375
1911257.1428209,2020230.5,7.81807279586792,-2.4081387519836426,5.675643444061279,-1.0839694738388062,-1.1908396482467651,-1.6488549709320068,3091.1728515625,1371.0,1395.6043701171875,202.1052703857422,210.9375
1911257.1484601,2020238.375,7.7965288162231445,-2.388988733291626,5.625373840332031,-0.290076345205307,-0.9007633328437805,-1.7099236249923706,3091.1728515625,1371.0,1394.13916015625,202.1052703857422,210.9375
1911257.1630583,2020246.125,7.8228607177734375,-2.3746259212493896,5.622980117797852,0.15267175436019897,-1.0229008197784424,-1.4809160232543945,3086.82373046875,1372.0,1392.6739501953125,202.1052703857422,210.9375
1911257.1698471,2020254.0,7.830041885375977,-2.3411130905151367,5.666068077087402,0.3206106722354889,-1.4198473691940308,-1.3282443284988403,3086.82373046875,1372.0,1391.94140625,202.1052703857422,210.9375
1911257.1706005,2020261.75,7.889886379241943,-2.271693706512451,5.668461799621582,-0.5190839767456055,-1.3740458488464355,-0.9770992398262024,3086.82373046875,1372.0,1391.208740234375,202.1052703857422,210.9375
1911257.1845685,2020269.625,7.842010974884033,-2.3770196437835693,5.651705741882324,-0.6106870174407959,-1.038167953491211,-1.1755725145339966,3086.82373046875,1372.0,1391.94140625,202.1052703857422,210.9375
1911257.1932292,2020277.375,7.842010974884033,-2.386594772338867,5.613405227661133,-1.0229008197784424,-0.8091602921485901,-1.3587785959243774,3091.1728515625,1371.0,1397.80224609375,202.1052703857422,210.9375
1911257.1994426,2020285.25,7.913824081420898,-2.396169900894165,5.625373840332031,-0.6106870174407959,-0.5038167834281921,-1.3740458488464355,3086.82373046875,1372.0,1403.6629638671875,202.1052703857422,210.9375
1911257.2114125,2020293.0,7.916217803955078,-2.314781665802002,5.627768039703369,-0.580152690410614,-0.4580152630805969,-1.2977099418640137,3086.82373046875,1372.0,1408.05859375,202.1052703857422,210.9375
1911257.2171843,2020300.875,7.846798419952393,-2.355475664138794,5.6325554847717285,-0.6412213444709778,-0.4885496199131012,-1.389312982559204,3086.82373046875,1372.0,1409.5238037109375,202.1052703857422,210.9375
1911257.2253044,2020308.625,7.8132853507995605,-2.345900774002075,5.594254970550537,-0.9618320465087891,-0.8244274854660034,-0.9007633328437805,3086.82373046875,1372.0,1408.791259765625,202.1052703857422,210.9375
1911257.2258676,2020316.5,7.794135093688965,-2.403351306915283,5.608617782592773,-0.5343511700630188,-0.7175572514533997,-1.0076335668563843,3082.48681640625,1373.0,1408.05859375,202.1052703857422,210.9375
1911257.2442685,2020324.25,7.827648162841797,-2.396169900894165,5.713943958282471,0.5496183037757874,-1.038167953491211,-1.0839694738388062,3091.1728515625,1371.0,1406.5933837890625,202.1052703857422,210.9375
1911257.2518822,2020332.125,7.837223052978516,-2.403351306915283,5.709156036376953,1.587786316871643,-1.1755725145339966,-1.0839694738388062,3086.82373046875,1372.0,1400.7325439453125,202.1052703857422,210.9375
1911257.2524512,2020339.875,7.81807279586792,-2.37223219871521,5.71633768081665,1.6793893575668335,-1.3129770755767822,-0.9312977194786072,3086.82373046875,1372.0,1397.069580078125,202.1052703857422,210.9375
1911257.2592841,2020347.75,7.853979587554932,-2.3243565559387207,5.692399978637695,0.4580152630805969,-1.3435114622116089,-0.5190839767456055,3082.48681640625,1373.0,1395.6043701171875,202.1052703857422,210.9375
1911257.2652028,2020355.5,7.868342399597168,-2.321962833404541,5.687612056732178,-0.7480915784835815,-0.9923664331436157,-1.267175555229187,3086.82373046875,1372.0,1394.13916015625,202.1052703857422,210.9375
1911257.276214,2020363.375,7.782166481018066,-2.381807327270508,5.668461799621582,-2.1679389476776123,-0.5038167834281921,-1.1755725145339966,3086.82373046875,1372.0,1392.6739501953125,202.1052703857422,210.9375
1911257.29018,2020371.125,7.7965288162231445,-2.42010760307312,5.6732497215271,-1.893129825592041,-0.9923664331436157,-1.2213740348815918,3082.48681640625,1373.0,1391.208740234375,202.1052703857422,210.9375
1911257.291098,2020379.0,7.8061041831970215,-2.4248952865600586,5.668461799621582,-1.7251908779144287,-1.2061069011688232,-1.0687023401260376,3082.48681640625,1373.0,1391.94140625,202.1052703857422,210.9375
1911257.2982883,2020386.75,7.849192142486572,-2.403351306915283,5.634949207305908,-1.3129770755767822,-1.160305380821228,-1.14503812789917,3082.48681640625,1373.0,1391.94140625,202.1052703857422,210.9375
1911257.3061249,2020394.625,7.882704734802246,-2.3842010498046875,5.591861248016357,-1.1908396482467651,-1.3587785959243774,-1.0534350872039795,3082.48681640625,1373.0,1392.6739501953125,202.1052703857422,210.9375
1911257.3357361,2020402.375,7.882704734802246,-2.381807327270508,5.594254970550537,-0.8396946787834167,-1.3282443284988403,-1.2366411685943604,3082.48681640625,1373.0,1394.13916015625,202.1052703857422,210.9375
1911257.3376191,2020410.25,7.830041885375977,-2.4081387519836426,5.601436138153076,-0.015267175622284412,-1.5572519302368164,-1.5267175436019897,3078.161865234375,1374.0,1395.6043701171875,202.1052703857422,210.9375
1911257.3379125,2020418.0,7.853979587554932,-2.3602633476257324,5.587073802947998,0.3206106722354889,-1.3435114622116089,-1.4351145029067993,3082.48681640625,1373.0,1397.80224609375,202.1052703857422,210.9375
1911257.345684,2020425.875,7.873129844665527,-2.3435068130493164,5.603829860687256,0.6259542107582092,-1.5114504098892212,-1.5419846773147583,3082.48681640625,1373.0,1399.2674560546875,202.1052703857422,210.9375
1911257.3526146,2020433.625,7.856373310089111,-2.3363256454467773,5.596648693084717,0.7633587718009949,-1.465648889541626,-1.1755725145339966,3078.161865234375,1374.0,1400.7325439453125,202.1052703857422,210.9375
1911257.3605699,2020441.5,7.832435607910156,-2.3171753883361816,5.6062235832214355,-0.04580152779817581,-1.5419846773147583,-1.0534350872039795,3078.161865234375,1374.0,1401.4652099609375,202.1052703857422,210.9375
1911257.3616122,2020449.25,7.849192142486572,-2.314781665802002,5.601436138153076,-0.42748090624809265,-1.1908396482467651,-1.3282443284988403,3082.48681640625,1373.0,1404.3956298828125,202.1052703857422,367.1875
1911257.3678415,2020457.125,7.827648162841797,-2.379413604736328,5.6157989501953125,-0.6259542107582092,-1.6488549709320068,-1.3740458488464355,3078.161865234375,1374.0,1406.5933837890625,202.1052703857422,367.1875
1911257.3825891,2020464.875,7.832435607910156,-2.381807327270508,5.618192672729492,-0.7175572514533997,-1.038167953491211,-1.465648889541626,3078.161865234375,1374.0,1408.791259765625,202.1052703857422,367.1875
1911257.3833179,2020472.75,7.839616775512695,-2.338719367980957,5.622980117797852,-0.9923664331436157,-1.0534350872039795,-0.9923664331436157,3078.161865234375,1374.0,1406.5933837890625,202.1052703857422,367.1875
1911257.3959917,2020480.5,7.837223052978516,-2.3363256454467773,5.589467525482178,-1.694656491279602,-0.8091602921485901,-1.14503812789917,3082.48681640625,1373.0,1403.6629638671875,202.1052703857422,367.1875
1911257.401869,2020488.375,7.825254440307617,-2.3435068130493164,5.575104713439941,-1.770992398262024,-0.5038167834281921,-1.1145038604736328,3078.161865234375,1374.0,1402.930419921875,202.1052703857422,367.1875
1911257.4098138,2020496.125,7.827648162841797,-2.3435068130493164,5.5990424156188965,-1.5572519302368164,-0.5496183037757874,-1.4198473691940308,3078.161865234375,1374.0,1405.86083984375,202.1052703857422,367.1875
1911257.4206555,2020504.0,7.820466995239258,-2.3985636234283447,5.6157989501953125,-1.0992366075515747,-0.47328245639801025,-1.3129770755767822,3078.161865234375,1374.0,1409.5238037109375,202.1052703857422,367.1875
1911257.4298271,2020511.75,7.8228607177734375,-2.396169900894165,5.620586395263672,-0.4580152630805969,-0.6870229244232178,-1.3587785959243774,3078.161865234375,1374.0,1411.7215576171875,202.1052703857422,367.1875
1911257.4379318,2020519.625,7.81567907333374,-2.4081387519836426,5.6325554847717285,-0.5496183037757874,-0.7938931584358215,-1.0839694738388062,3078.161865234375,1374.0,1411.7215576171875,202.1052703857422,367.1875
1911257.4383403,2020527.375,7.846798419952393,-2.3746259212493896,5.661280632019043,-0.2442748099565506,-0.9923664331436157,-1.2366411685943604,3069.548583984375,1376.0,1412.4542236328125,202.1052703857422,367.1875
1911257.4544827,2020535.25,7.832435607910156,-2.379413604736328,5.656493186950684,-0.7938931584358215,-1.2366411685943604,-1.4045801162719727,3078.161865234375,1374.0,1414.6519775390625,202.1052703857422,367.1875
1911257.4624185,2020543.0,7.868342399597168,-2.3578696250915527,5.658886909484863,-1.4351145029067993,-1.267175555229187,-1.2519084215164185,3073.84912109375,1375.0,1413.91943359375,202.1052703857422,367.1875
1911257.4627907,2020550.875,7.808497905731201,-2.3770196437835693,5.661280632019043,-2.0458016395568848,-0.9312977194786072,-1.267175555229187,3078.161865234375,1374.0,1410.2564697265625,202.1052703857422,367.1875
1911257.4664886,2020558.625,7.8061041831970215,-2.3674447536468506,5.625373840332031,-2.717557191848755,-0.8702290058135986,-1.3435114622116089,3078.161865234375,1374.0,1408.05859375,202.1052703857422,367.1875
1911257.4764738,2020566.5,7.932974338531494,-2.305206537246704,5.675643444061279,-2.2748091220855713,-0.6106870174407959,-1.572519063949585,3073.84912109375,1375.0,1408.791259765625,202.1052703857422,367.1875
1911257.4896063,2020574.25,7.925793170928955,-2.2860562801361084,5.72112512588501,-0.8091602921485901,-0.9312977194786072,-1.4351145029067993,3073.84912109375,1375.0,1408.791259765625,202.1052703857422,367.1875
1911257.4993106,2020582.125,7.894673824310303,-2.314781665802002,5.699581146240234,-0.39694657921791077,-0.8702290058135986,-1.587786316871643,3073.84912109375,1375.0,1408.791259765625,202.1052703857422,367.1875
1911257.5072964,2020589.875,7.873129844665527,-2.329144239425659,5.644524097442627,-0.8396946787834167,-0.6717557311058044,-1.572519063949585,3073.84912109375,1375.0,1411.7215576171875,202.1052703857422,367.1875
1911257.5167502,2020597.75,7.849192142486572,-2.386594772338867,5.713943958282471,-1.14503812789917,-0.5954198241233826,-1.465648889541626,3073.84912109375,1375.0,1417.5823974609375,202.1052703857422,367.1875
1911257.5176137,2020605.5,7.801316738128662,-2.412926435470581,5.675643444061279,-1.0534350872039795,-0.15267175436019897,-1.8320610523223877,3073.84912109375,1375.0,1419.047607421875,202.1052703857422,367.1875
1911257.5262666,2020613.375,7.743865966796875,-2.4320766925811768,5.704368591308594,-1.1145038604736328,-0.47328245639801025,-1.7557251453399658,3073.84912109375,1375.0,1419.047607421875,202.1052703857422,367.1875
1911257.5372141,2020621.125,7.808497905731201,-2.3674447536468506,5.7402753829956055,-0.732824444770813,-0.5648854970932007,-1.3435114622116089,3073.84912109375,1375.0,1418.3150634765625,202.1052703857422,367.1875
1911257.5376037,2020629.0,7.8228607177734375,-2.37223219871521,5.72112512588501,-0.290076345205307,-1.0992366075515747,-1.1755725145339966,3069.548583984375,1376.0,1418.3150634765625,202.1052703857422,367.1875
1911257.5474256,2020636.75,7.81567907333374,-2.3770196437835693,5.675643444061279,-0.6564885377883911,-1.587786316871643,-0.8549618124961853,3073.84912109375,1375.0,1417.5823974609375,202.1052703857422,367.1875
1911257.5606299,2020644.625,7.851585865020752,-2.3411130905151367,5.680430889129639,-1.2519084215164185,-1.2977099418640137,-1.2061069011688232,3073.84912109375,1375.0,1416.1171875,202.1052703857422,367.1875
1911257.5731319,2020652.375,7.853979587554932,-2.3339316844940186,5.67085599899292,-1.5572519302368164,-1.3282443284988403,-1.0839694738388062,3073.84912109375,1375.0,1409.5238037109375,202.1052703857422,367.1875
1911257.5750986,2020660.25,7.839616775512695,-2.3435068130493164,5.639736652374268,-1.2366411685943604,-1.1145038604736328,-1.496183156967163,3069.548583984375,1376.0,1404.3956298828125,202.1052703857422,367.1875
1911257.5830438,2020668.0,7.853979587554932,-2.3195691108703613,5.613405227661133,-1.8625954389572144,-1.2061069011688232,-1.3740458488464355,3069.548583984375,1376.0,1400.0,202.1052703857422,367.1875
1911257.5945954,2020675.875,7.875523567199707,-2.329144239425659,5.634949207305908,-2.29007625579834,-1.14503812789917,-1.2366411685943604,3069.548583984375,1376.0,1396.3370361328125,202.1052703857422,367.1875
1911257.595274,2020683.625,7.894673824310303,-2.3195691108703613,5.611011505126953,-2.2290077209472656,-0.8549618124961853,-1.4809160232543945,3069.548583984375,1376.0,1395.6043701171875,202.1052703857422,367.1875
1911257.6073819,2020691.5,7.834829330444336,-2.3842010498046875,5.642130374908447,-1.6030534505844116,-0.9465649127960205,-1.5267175436019897,3069.548583984375,1376.0,1395.6043701171875,202.1052703857422,367.1875
1911257.6146759,2020699.25,7.868342399597168,-2.338719367980957,5.666068077087402,-1.3740458488464355,-0.5496183037757874,-1.7099236249923706,3069.548583984375,1376.0,1398.5347900390625,202.1052703857422,367.1875
1911257.627486,2020707.125,7.846798419952393,-2.355475664138794,5.680430889129639,-1.4198473691940308,-0.6259542107582092,-1.6183205842971802,3065.260009765625,1377.0,1402.19775390625,202.1052703857422,367.1875
1911257.6290177,2020714.875,7.8228607177734375,-2.3698384761810303,5.651705741882324,-0.9312977194786072,-0.6870229244232178,-1.267175555229187,3065.260009765625,1377.0,1404.3956298828125,202.1052703857422,367.1875
1911257.6339362,2020722.75,7.81807279586792,-2.365050792694092,5.654099464416504,-1.3587785959243774,-0.38167938590049744,-1.1755725145339966,3065.260009765625,1377.0,1405.86083984375,202.1052703857422,367.1875
1911257.647846,2020730.5,7.851585865020752,-2.3411130905151367,5.687612056732178,-1.8167939186096191,-0.39694657921791077,-1.2977099418640137,3065.260009765625,1377.0,1405.86083984375,202.1052703857422,367.1875
1911257.6502764,2020738.375,7.832435607910156,-2.345900774002075,5.709156036376953,-2.4122138023376465,-0.22900763154029846,-1.0534350872039795,3065.260009765625,1377.0,1405.128173828125,207.56756591796875,289.0625
1911257.6620093,2020746.125,7.820466995239258,-2.3602633476257324,5.685218334197998,-2.8396947383880615,-0.015267175622284412,-1.1755725145339966,3069.548583984375,1376.0,1402.19775390625,207.56756591796875,289.0625
1911257.6729337,2020754.0,7.832435607910156,-2.386594772338867,5.656493186950684,-2.931297779083252,-0.35114502906799316,-1.1145038604736328,3065.260009765625,1377.0,1397.80224609375,207.56756591796875,289.0625
1911257.6734184,2020761.75,7.861160755157471,-2.3770196437835693,5.654099464416504,-3.068702220916748,-0.3206106722354889,-1.4809160232543945,3065.260009765625,1377.0,1394.871826171875,207.56756591796875,289.0625
1911257.6810882,2020769.625,7.844404697418213,-2.37223219871521,5.654099464416504,-3.175572633743286,-0.19847328960895538,-1.3740458488464355,3060.9833984375,1378.0,1391.94140625,207.56756591796875,289.0625
1911257.6901175,2020777.375,7.853979587554932,-2.3913824558258057,5.637342929840088,-3.7251908779144287,0.19847328960895538,-1.3129770755767822,3069.548583984375,1376.0,1391.208740234375,207.56756591796875,289.0625
1911257.695965,2020785.25,7.81807279586792,-2.4272890090942383,5.644524097442627,-3.3129770755767822,0.0,-1.9389313459396362,3060.9833984375,1378.0,1392.6739501953125,207.56756591796875,289.0625
1911257.7106752,2020793.0,7.7893476486206055,-2.422501564025879,5.637342929840088,-2.717557191848755,-0.1221374049782753,-1.5572519302368164,3065.260009765625,1377.0,1394.13916015625,207.56756591796875,289.0625
1911257.718429,2020800.875,7.81807279586792,-2.4344704151153564,5.630161762237549,-2.2748091220855713,-0.2442748099565506,-1.4809160232543945,3065.260009765625,1377.0,1394.871826171875,207.56756591796875,289.0625
1911257.7265782,2020808.625,7.827648162841797,-2.4177138805389404,5.613405227661133,-2.4732823371887207,-0.2442748099565506,-1.5419846773147583,3060.9833984375,1378.0,1397.069580078125,207.56756591796875,289.0625
1911257.7270738,2020816.5,7.830041885375977,-2.436864137649536,5.666068077087402,-1.8167939186096191,-0.3358778655529022,-1.3282443284988403,3065.260009765625,1377.0,1399.2674560546875,207.56756591796875,289.0625
1911257.7374149,2020824.25,7.7965288162231445,-2.4440455436706543,5.680430889129639,-1.5572519302368164,-0.38167938590049744,-1.8167939186096191,3065.260009765625,1377.0,1402.930419921875,207.56756591796875,289.0625
1911257.7506336,2020832.125,7.830041885375977,-2.4009575843811035,5.680430889129639,-1.4351145029067993,-0.5496183037757874,-1.4198473691940308,3060.9833984375,1378.0,1404.3956298828125,207.56756591796875,289.0625
1911257.7566335,2020839.875,7.897067546844482,-2.3267505168914795,5.654099464416504,-2.534351110458374,-0.3664122223854065,-1.2519084215164185,3065.260009765625,1377.0,1407.3260498046875,207.56756591796875,289.0625
1911257.7646401,2020847.75,7.875523567199707,-2.379413604736328,5.646917819976807,-2.8091602325439453,-0.09160305559635162,-1.3129770755767822,3060.9833984375,1378.0,1408.05859375,207.56756591796875,289.0625
1911257.7742872,2020855.5,7.846798419952393,-2.386594772338867,5.654099464416504,-2.8396947383880615,-0.19847328960895538,-1.4503816366195679,3060.9833984375,1378.0,1409.5238037109375,207.56756591796875,289.0625
1911257.7803515,2020863.375,7.830041885375977,-2.396169900894165,5.630161762237549,-2.85496187210083,-0.07633587718009949,-1.465648889541626,3060.9833984375,1378.0,1408.791259765625,207.56756591796875,289.0625
1911257.7889686,2020871.125,7.808497905731201,-2.4177138805389404,5.6493120193481445,-2.5190839767456055,-0.19847328960895538,-1.3587785959243774,3060.9833984375,1378.0,1408.05859375,207.56756591796875,289.0625
1911257.7895925,2020879.0,7.808497905731201,-2.4248952865600586,5.6157989501953125,-2.2290077209472656,-0.18320611119270325,-1.267175555229187,3056.71875,1379.0,1407.3260498046875,207.56756591796875,289.0625
1911257.7974499,2020886.75,7.827648162841797,-2.396169900894165,5.611011505126953,-1.893129825592041,-0.2442748099565506,-1.496183156967163,3060.9833984375,1378.0,1406.5933837890625,207.56756591796875,289.0625
1911257.8040534,2020894.625,7.81567907333374,-2.4081387519836426,5.637342929840088,-1.587786316871643,-0.1679389327764511,-1.4198473691940308,3060.9833984375,1378.0,1404.3956298828125,207.56756591796875,289.0625
1911257.8188861,2020902.375,7.810891628265381,-2.42010760307312,5.622980117797852,-0.9770992398262024,-0.2442748099565506,-1.4045801162719727,3060.9833984375,1378.0,1403.6629638671875,207.56756591796875,289.0625
1911257.8303637,2020910.25,7.825254440307617,-2.4081387519836426,5.572710990905762,-1.4045801162719727,-0.15267175436019897,-1.4198473691940308,3056.71875,1379.0,1401.4652099609375,207.56756591796875,289.0625
1911257.8363798,2020918.0,7.81807279586792,-2.4177138805389404,5.6732497215271,-1.0229008197784424,-0.35114502906799316,-1.4809160232543945,3060.9833984375,1378.0,1397.80224609375,207.56756591796875,289.0625
1911257.844358,2020925.875,7.882704734802246,-2.4177138805389404,5.622980117797852,-1.160305380821228,-0.6412213444709778,-1.6335878372192383,3056.71875,1379.0,1394.871826171875,207.56756591796875,289.0625
1911257.8447632,2020933.625,7.880311012268066,-2.362657070159912,5.625373840332031,-1.6488549709320068,-0.3358778655529022,-1.5267175436019897,3056.71875,1379.0,1393.4066162109375,207.56756591796875,289.0625
1911257.8563927,2020941.5,7.842010974884033,-2.3842010498046875,5.6325554847717285,-2.7633588314056396,0.04580152779817581,-1.7862595319747925,3056.71875,1379.0,1392.6739501953125,207.56756591796875,289.0625
1911257.8632827,2020949.25,7.81807279586792,-2.386594772338867,5.622980117797852,-2.961832046508789,0.15267175436019897,-1.5419846773147583,3056.71875,1379.0,1390.4761962890625,207.56756591796875,289.0625
1911257.8692351,2020957.125,7.81567907333374,-2.4177138805389404,5.627768039703369,-2.5954198837280273,0.15267175436019897,-1.801526665687561,3056.71875,1379.0,1388.2784423828125,207.56756591796875,218.75
1911257.8812859,2020964.875,7.839616775512695,-2.396169900894165,5.663674354553223,-2.8702290058135986,-0.35114502906799316,-1.8473281860351562,3052.4658203125,1380.0,1386.813232421875,207.56756591796875,218.75
1911257.8816895,2020972.75,7.861160755157471,-2.388988733291626,5.658886909484863,-3.435114622116089,0.07633587718009949,-1.4351145029067993,3052.4658203125,1380.0,1386.08056640625,207.56756591796875,218.75
1911257.8973073,2020980.5,7.794135093688965,-2.4272890090942383,5.6732497215271,-3.251908302307129,-0.25954198837280273,-1.267175555229187,3056.71875,1379.0,1386.813232421875,207.56756591796875,218.75
1911257.8978401,2020988.375,7.81807279586792,-2.4416518211364746,5.67085599899292,-2.3053436279296875,-0.4885496199131012,-1.6335878372192383,3056.71875,1379.0,1390.4761962890625,207.56756591796875,218.75
1911257.9085663,2020996.125,7.8228607177734375,-2.460801839828491,5.682824611663818,-2.3664121627807617,-0.5190839767456055,-1.9083969593048096,3056.71875,1379.0,1392.6739501953125,207.56756591796875,218.75
1911257.9209222,2021004.0,7.830041885375977,-2.439257860183716,5.6732497215271,-2.106870174407959,-1.5419846773147583,-1.496183156967163,3052.4658203125,1380.0,1394.13916015625,207.56756591796875,218.75
1911257.9331812,2021011.75,7.81807279586792,-2.422501564025879,5.6732497215271,-2.3053436279296875,-1.2824426889419556,-1.8320610523223877,3052.4658203125,1380.0,1394.13916015625,207.56756591796875,218.75
1911257.9413981,2021019.625,7.832435607910156,-2.381807327270508,5.675643444061279,-2.6564886569976807,-1.496183156967163,-1.6488549709320068,3052.4658203125,1380.0,1394.871826171875,207.56756591796875,218.75
1911257.9482249,2021027.375,7.834829330444336,-2.362657070159912,5.656493186950684,-2.961832046508789,-0.7938931584358215,-1.5267175436019897,3052.4658203125,1380.0,1397.069580078125,207.56756591796875,218.75
1911257.9557586,2021035.25,7.81807279586792,-2.4009575843811035,5.651705741882324,-2.6564886569976807,-0.38167938590049744,-1.389312982559204,3052.4658203125,1380.0,1399.2674560546875,207.56756591796875,218.75
1911257.9676523,2021043.0,7.832435607910156,-2.396169900894165,5.611011505126953,-2.3053436279296875,-0.5038167834281921,-1.3740458488464355,3056.71875,1379.0,1397.80224609375,207.56756591796875,218.75
1911257.9736169,2021050.875,7.858767032623291,-2.403351306915283,5.603829860687256,-2.7938930988311768,0.04580152779817581,-1.7862595319747925,3052.4658203125,1380.0,1394.871826171875,207.56756591796875,218.75
1911257.9856283,2021058.625,7.863554954528809,-2.436864137649536,5.639736652374268,-2.931297779083252,-0.5954198241233826,-1.8625954389572144,3052.4658203125,1380.0,1391.94140625,207.56756591796875,218.75
1911257.9975138,2021066.5,7.7965288162231445,-2.4655895233154297,5.627768039703369,-2.0,-0.8396946787834167,-1.9389313459396362,3048.224853515625,1381.0,1394.13916015625,207.56756591796875,218.75
1911257.9980186,2021074.25,7.798923015594482,-2.4320766925811768,5.637342929840088,-1.1908396482467651,-1.038167953491211,-2.183206081390381,3048.224853515625,1381.0,1392.6739501953125,207.56756591796875,218.75
1911258.0005305,2021082.125,7.810891628265381,-2.4248952865600586,5.6325554847717285,-1.1145038604736328,-1.0229008197784424,-2.076335906982422,3048.224853515625,1381.0,1391.208740234375,207.56756591796875,218.75
1911258.0009883,2021089.875,7.8132853507995605,-2.4248952865600586,5.694793701171875,-1.5572519302368164,-1.0534350872039795,-2.0916030406951904,3048.224853515625,1381.0,1390.4761962890625,207.56756591796875,218.75
1911258.0135769,2021097.75,7.791741371154785,-2.422501564025879,5.690005779266357,-1.9083969593048096,-1.0687023401260376,-1.770992398262024,3048.224853515625,1381.0,1391.208740234375,207.56756591796875,218.75
1911258.0195562,2021105.5,7.825254440307617,-2.446439266204834,5.690005779266357,-1.694656491279602,-1.1145038604736328,-2.0,3048.224853515625,1381.0,1390.4761962890625,207.56756591796875,218.75
1911258.029439,2021113.375,7.842010974884033,-2.3842010498046875,5.699581146240234,-1.8625954389572144,-0.9770992398262024,-1.5114504098892212,3048.224853515625,1381.0,1390.4761962890625,207.56756591796875,218.75
1911258.041384,2021121.125,7.830041885375977,-2.3937761783599854,5.692399978637695,-2.641221284866333,-1.1145038604736328,-1.2366411685943604,3048.224853515625,1381.0,1390.4761962890625,207.56756591796875,218.75
1911258.0417962,2021129.0,7.8132853507995605,-2.4272890090942383,5.58467960357666,-2.3358778953552246,-1.0992366075515747,-1.0992366075515747,3043.995361328125,1382.0,1391.208740234375,207.56756591796875,218.75
1911258.0497267,2021136.75,7.849192142486572,-2.365050792694092,5.620586395263672,-2.4732823371887207,-0.6412213444709778,-1.0992366075515747,3048.224853515625,1381.0,1392.6739501953125,207.56756591796875,218.75
1911258.0534456,2021144.625,7.837223052978516,-2.3770196437835693,5.6157989501953125,-2.0,-0.13740457594394684,-1.0992366075515747,3048.224853515625,1381.0,1393.4066162109375,207.56756591796875,218.75
1911258.0651213,2021152.375,7.832435607910156,-2.403351306915283,5.644524097442627,-1.4198473691940308,-0.2442748099565506,-1.801526665687561,3048.224853515625,1381.0,1392.6739501953125,207.56756591796875,218.75
1911258.0731847,2021160.25,7.786953926086426,-2.4440455436706543,5.704368591308594,-0.25954198837280273,-0.5954198241233826,-1.5419846773147583,3043.995361328125,1382.0,1392.6739501953125,207.56756591796875,218.75
1911258.0790997,2021168.0,7.81807279586792,-2.4584081172943115,5.699581146240234,-0.3206106722354889,-1.0992366075515747,-1.4809160232543945,3043.995361328125,1382.0,1393.4066162109375,207.56756591796875,218.75
1911258.0935964,2021175.875,7.810891628265381,-2.46319580078125,5.7402753829956055,-0.9618320465087891,-0.8396946787834167,-1.7862595319747925,3043.995361328125,1382.0,1394.871826171875,207.56756591796875,218.75
1911258.0943904,2021183.625,7.808497905731201,-2.439257860183716,5.725912570953369,-2.1526718139648438,-0.6106870174407959,-1.4045801162719727,3048.224853515625,1381.0,1397.80224609375,207.56756591796875,218.75
1911258.1040964,2021191.5,7.810891628265381,-2.4320766925811768,5.620586395263672,-2.7633588314056396,-0.4885496199131012,-1.5114504098892212,3043.995361328125,1382.0,1400.0,207.56756591796875,218.75
1911258.1120391,2021199.25,7.763016223907471,-2.4272890090942383,5.651705741882324,-2.0610687732696533,-1.0839694738388062,-1.9847328662872314,3043.995361328125,1382.0,1402.930419921875,207.56756591796875,218.75
1911258.1183937,2021207.125,7.844404697418213,-2.4488329887390137,5.630161762237549,-1.7404580116271973,-1.0839694738388062,-2.0610687732696533,3043.995361328125,1382.0,1404.3956298828125,207.56756591796875,218.75
1911258.1309198,2021214.875,7.851585865020752,-2.422501564025879,5.579892158508301,-1.770992398262024,-0.7480915784835815,-1.587786316871643,3043.995361328125,1382.0,1405.86083984375,207.56756591796875,218.75
1911258.1408758,2021222.75,7.894673824310303,-2.403351306915283,5.611011505126953,-2.0,-0.9007633328437805,-1.587786316871643,3043.995361328125,1382.0,1408.791259765625,207.56756591796875,218.75
1911258.1526755,2021230.5,7.887492656707764,-2.4153201580047607,5.622980117797852,-2.1984732151031494,-0.7786259651184082,-2.0,3043.995361328125,1382.0,1410.989013671875,207.56756591796875,218.75
1911258.1578499,2021238.375,7.858767032623291,-2.4177138805389404,5.625373840332031,-1.7099236249923706,-0.8091602921485901,-1.9541984796524048,3043.995361328125,1382.0,1411.7215576171875,207.56756591796875,218.75
1911258.1621301,2021246.125,7.81567907333374,-2.422501564025879,5.613405227661133,-1.4198473691940308,-0.9007633328437805,-2.0,3043.995361328125,1382.0,1411.7215576171875,207.56756591796875,218.75
1911258.1723765,2021254.0,7.846798419952393,-2.429682731628418,5.611011505126953,-1.160305380821228,-0.9312977194786072,-1.6335878372192383,3039.77783203125,1383.0,1411.7215576171875,207.56756591796875,218.75
1911258.1727902,2021261.75,7.830041885375977,-2.405745029449463,5.627768039703369,-1.465648889541626,-0.8549618124961853,-1.5572519302368164,3043.995361328125,1382.0,1410.2564697265625,207.56756591796875,218.75
1911258.1825547,2021269.625,7.81567907333374,-2.439257860183716,5.651705741882324,-1.5419846773147583,-0.8702290058135986,-1.2519084215164185,3043.995361328125,1382.0,1409.5238037109375,207.56756591796875,218.75
1911258.1936037,2021277.375,7.8228607177734375,-2.405745029449463,5.618192672729492,-1.6183205842971802,-1.0687023401260376,-1.14503812789917,3043.995361328125,1382.0,1409.5238037109375,187.31707763671875,320.3125
1911258.200351,2021285.25,7.825254440307617,-2.37223219871521,5.603829860687256,-1.893129825592041,-0.9160305261611938,-1.4503816366195679,3039.77783203125,1383.0,1410.2564697265625,187.31707763671875,320.3125
1911258.2073533,2021293.0,7.801316738128662,-2.396169900894165,5.555954456329346,-2.0152671337127686,-0.732824444770813,-1.1297709941864014,3043.995361328125,1382.0,1410.989013671875,187.31707763671875,320.3125
1911258.2152387,2021300.875,7.8132853507995605,-2.4272890090942383,5.579892158508301,-1.587786316871643,-0.35114502906799316,-1.4045801162719727,3039.77783203125,1383.0,1413.91943359375,187.31707763671875,320.3125
1911258.2233421,2021308.625,7.846798419952393,-2.4105327129364014,5.5990424156188965,-1.8625954389572144,-0.13740457594394684,-1.3129770755767822,3035.572021484375,1384.0,1415.3846435546875,187.31707763671875,320.3125
1911258.2292989,2021316.5,7.81807279586792,-2.4272890090942383,5.6062235832214355,-2.244274854660034,-0.290076345205307,-1.7099236249923706,3039.77783203125,1383.0,1416.1171875,187.31707763671875,320.3125
1911258.2371384,2021324.25,7.801316738128662,-2.4440455436706543,5.620586395263672,-2.396946668624878,0.04580152779817581,-1.7251908779144287,3039.77783203125,1383.0,1417.5823974609375,187.31707763671875,320.3125
1911258.2500916,2021332.125,7.798923015594482,-2.456014394760132,5.651705741882324,-2.1221373081207275,-0.2748091518878937,-1.9236640930175781,3039.77783203125,1383.0,1417.5823974609375,187.31707763671875,320.3125
1911258.2505309,2021339.875,7.81807279586792,-2.460801839828491,5.663674354553223,-2.0152671337127686,-0.38167938590049744,-2.458015203475952,3039.77783203125,1383.0,1418.3150634765625,187.31707763671875,320.3125
1911258.2590957,2021347.75,7.8228607177734375,-2.4655895233154297,5.637342929840088,-1.8167939186096191,-0.39694657921791077,-2.3664121627807617,3039.77783203125,1383.0,1417.5823974609375,187.31707763671875,320.3125
1911258.2670252,2021355.5,7.832435607910156,-2.446439266204834,5.6157989501953125,-1.8625954389572144,-0.42748090624809265,-2.106870174407959,3039.77783203125,1383.0,1416.1171875,187.31707763671875,320.3125
1911258.2772161,2021363.375,7.827648162841797,-2.422501564025879,5.620586395263672,-2.534351110458374,-0.21374045312404633,-1.9847328662872314,3039.77783203125,1383.0,1413.186767578125,187.31707763671875,320.3125
1911258.2869875,2021371.125,7.7725911140441895,-2.4344704151153564,5.563135623931885,-2.6870229244232178,-0.3206106722354889,-1.6030534505844116,3039.77783203125,1383.0,1410.2564697265625,187.31707763671875,320.3125
1911258.2873341,2021379.0,7.856373310089111,-2.446439266204834,5.608617782592773,-1.2824426889419556,-0.1679389327764511,-1.8320610523223877,3039.77783203125,1383.0,1408.05859375,187.31707763671875,320.3125
1911258.3030609,2021386.75,7.880311012268066,-2.3842010498046875,5.646917819976807,-0.580152690410614,-0.1221374049782753,-2.0458016395568848,3039.77783203125,1383.0,1405.86083984375,187.31707763671875,320.3125
1911258.3068873,2021394.625,7.837223052978516,-2.4081387519836426,5.694793701171875,-0.5648854970932007,0.290076345205307,-2.213740348815918,3039.77783203125,1383.0,1404.3956298828125,187.31707763671875,320.3125
1911258.3148982,2021402.375,7.837223052978516,-2.4248952865600586,5.7307000160217285,-0.5496183037757874,0.19847328960895538,-2.320610761642456,3035.572021484375,1384.0,1403.6629638671875,187.31707763671875,320.3125
1911258.3235149,2021410.25,7.842010974884033,-2.4775583744049072,5.699581146240234,-0.6259542107582092,0.30534350872039795,-3.419847249984741,3035.572021484375,1384.0,1402.930419921875,187.31707763671875,320.3125
1911258.3334804,2021418.0,7.801316738128662,-2.4679832458496094,5.7402753829956055,-0.9618320465087891,0.15267175436019897,-2.6870229244232178,3035.572021484375,1384.0,1402.930419921875,187.31707763671875,320.3125
1911258.3415317,2021425.875,7.820466995239258,-2.4416518211364746,5.713943958282471,-1.4198473691940308,-0.15267175436019897,-2.0152671337127686,3031.377685546875,1385.0,1403.6629638671875,187.31707763671875,320.3125
1911258.3536374,2021433.625,7.777379035949707,-2.453620672225952,5.71633768081665,-0.8702290058135986,-0.39694657921791077,-2.1984732151031494,3035.572021484375,1384.0,1402.19775390625,187.31707763671875,320.3125
1911258.3635277,2021441.5,7.801316738128662,-2.453620672225952,5.725912570953369,-0.39694657921791077,-0.5190839767456055,-2.076335906982422,3031.377685546875,1385.0,1400.0,187.31707763671875,320.3125
1911258.3693497,2021449.25,7.798923015594482,-2.4440455436706543,5.658886909484863,-0.015267175622284412,-0.580152690410614,-2.0,3035.572021484375,1384.0,1394.13916015625,187.31707763671875,320.3125
1911258.3715111,2021457.125,7.798923015594482,-2.4320766925811768,5.613405227661133,-0.885496199131012,-0.7786259651184082,-1.6335878372192383,3035.572021484375,1384.0,1391.208740234375,187.31707763671875,320.3125
1911258.3826025,2021464.875,7.8228607177734375,-2.405745029449463,5.6325554847717285,-0.8702290058135986,-0.3206106722354889,-1.587786316871643,3035.572021484375,1384.0,1390.4761962890625,187.31707763671875,320.3125
1911258.383091,2021472.75,7.839616775512695,-2.4081387519836426,5.6493120193481445,-0.5648854970932007,0.21374045312404633,-2.0458016395568848,3031.377685546875,1385.0,1388.2784423828125,187.31707763671875,320.3125
1911258.3960847,2021480.5,7.8228607177734375,-2.338719367980957,5.646917819976807,-0.9770992398262024,-0.13740457594394684,-2.0,3035.572021484375,1384.0,1386.813232421875,187.31707763671875,320.3125
1911258.4033442,2021488.375,7.832435607910156,-2.4153201580047607,5.644524097442627,-0.8091602921485901,-0.21374045312404633,-2.534351110458374,3031.377685546875,1385.0,1386.813232421875,187.31707763671875,320.3125
1911258.4133539,2021496.125,7.801316738128662,-2.4105327129364014,5.654099464416504,-0.9618320465087891,0.06106870248913765,-2.1679389476776123,3035.572021484375,1384.0,1387.5457763671875,187.31707763671875,320.3125
1911258.4292,2021504.0,8.308796882629395,-2.5972471237182617,5.692399978637695,-1.465648889541626,0.4885496199131012,-1.6488549709320068,3031.377685546875,1385.0,1390.4761962890625,187.31707763671875,320.3125
1911258.4319643,2021511.75,7.944942951202393,-2.429682731628418,5.7642130851745605,-1.0839694738388062,-0.5496183037757874,-2.183206081390381,3031.377685546875,1385.0,1393.4066162109375,187.31707763671875,320.3125
1911258.4345236,2021519.625,7.7965288162231445,-2.403351306915283,5.692399978637695,-1.4503816366195679,-0.21374045312404633,-2.244274854660034,3031.377685546875,1385.0,1397.069580078125,187.31707763671875,320.3125
1911258.4414525,2021527.375,7.820466995239258,-2.381807327270508,5.6325554847717285,-1.877862572669983,-0.015267175622284412,-2.1221373081207275,3031.377685546875,1385.0,1396.3370361328125,187.31707763671875,320.3125
1911258.4473635,2021535.25,7.8228607177734375,-2.3674447536468506,5.6732497215271,-1.3435114622116089,0.09160305559635162,-1.9541984796524048,3027.195068359375,1386.0,1397.80224609375,232.72727966308594,257.8125
1911258.4631851,2021543.0,7.81807279586792,-2.4177138805389404,5.651705741882324,-1.3587785959243774,-0.38167938590049744,-1.7557251453399658,3031.377685546875,1385.0,1397.069580078125,232.72727966308594,257.8125
1911258.4636672,2021550.875,7.825254440307617,-2.3913824558258057,5.625373840332031,-1.1297709941864014,-0.25954198837280273,-1.5267175436019897,3027.195068359375,1386.0,1397.069580078125,232.72727966308594,257.8125
1911258.4681921,2021558.625,7.839616775512695,-2.3602633476257324,5.6157989501953125,-1.3282443284988403,-0.290076345205307,-1.893129825592041,3027.195068359375,1386.0,1396.3370361328125,232.72727966308594,257.8125
1911258.4742133,2021566.5,7.81567907333374,-2.3842010498046875,5.630161762237549,-0.8396946787834167,-0.15267175436019897,-1.8167939186096191,3027.195068359375,1386.0,1398.5347900390625,232.72727966308594,257.8125
1911258.4981343,2021574.25,7.808497905731201,-2.4153201580047607,5.601436138153076,-0.8702290058135986,0.0,-1.587786316871643,3031.377685546875,1385.0,1398.5347900390625,232.72727966308594,257.8125
1911258.5056213,2021582.125,7.794135093688965,-2.446439266204834,5.637342929840088,-0.25954198837280273,-0.10687022656202316,-1.587786316871643,3027.195068359375,1386.0,1396.3370361328125,232.72727966308594,257.8125
1911258.5061108,2021589.875,7.791741371154785,-2.4679832458496094,5.642130374908447,0.5648854970932007,-0.13740457594394684,-1.694656491279602,3027.195068359375,1386.0,1392.6739501953125,232.72727966308594,257.8125
1911258.5138743,2021597.75,7.7965288162231445,-2.4584081172943115,5.685218334197998,0.35114502906799316,0.6412213444709778,-1.5419846773147583,3027.195068359375,1386.0,1389.7435302734375,232.72727966308594,257.8125
1911258.5145206,2021605.5,7.8132853507995605,-2.4655895233154297,5.680430889129639,0.47328245639801025,0.15267175436019897,-1.8167939186096191,3027.195068359375,1386.0,1382.4176025390625,232.72727966308594,257.8125
1911258.5256332,2021613.375,7.832435607910156,-2.3937761783599854,5.618192672729492,0.10687022656202316,-0.10687022656202316,-1.6641221046447754,3027.195068359375,1386.0,1375.82421875,232.72727966308594,257.8125
1911258.5395074,2021621.125,7.882704734802246,-2.2956314086914062,5.618192672729492,-1.0534350872039795,0.10687022656202316,-1.572519063949585,3031.377685546875,1385.0,1368.4981689453125,232.72727966308594,257.8125
1911258.5458531,2021629.0,7.8132853507995605,-2.307600259780884,5.661280632019043,-2.0,0.030534351244568825,-2.0,3027.195068359375,1386.0,1364.835205078125,232.72727966308594,257.8125
1911258.5570985,2021636.75,7.830041885375977,-2.388988733291626,5.651705741882324,-1.877862572669983,-0.07633587718009949,-1.587786316871643,3027.195068359375,1386.0,1364.835205078125,232.72727966308594,257.8125
1911258.5577385,2021644.625,7.827648162841797,-2.348294496536255,5.699581146240234,-1.9083969593048096,-0.2442748099565506,-1.9236640930175781,3027.195068359375,1386.0,1365.5677490234375,232.72727966308594,257.8125
1911258.5718106,2021652.375,7.791741371154785,-2.42010760307312,5.694793701171875,-1.9083969593048096,-0.7175572514533997,-1.4045801162719727,3023.02392578125,1387.0,1368.4981689453125,232.72727966308594,257.8125
1911258.5724531,2021660.25,7.77019739151001,-2.470376968383789,5.692399978637695,-1.1755725145339966,-0.5343511700630188,-1.4503816366195679,3023.02392578125,1387.0,1372.1611328125,232.72727966308594,257.8125
1911258.5786804,2021668.0,7.782166481018066,-2.4751646518707275,5.697187423706055,-0.6412213444709778,-0.885496199131012,-1.496183156967163,3027.195068359375,1386.0,1378.02197265625,232.72727966308594,257.8125
1911258.6170194,2021675.875,7.755835056304932,-2.470376968383789,5.675643444061279,0.0,-0.9770992398262024,-1.4198473691940308,3027.195068359375,1386.0,1384.6153564453125,232.72727966308594,257.8125
1911258.6175278,2021683.625,7.763016223907471,-2.4679832458496094,5.658886909484863,0.6412213444709778,-1.2061069011688232,-1.496183156967163,3023.02392578125,1387.0,1389.010986328125,232.72727966308594,257.8125
1911258.618006,2021691.5,7.760622501373291,-2.3913824558258057,5.661280632019043,0.8702290058135986,-0.732824444770813,-1.465648889541626,3023.02392578125,1387.0,1392.6739501953125,232.72727966308594,257.8125
1911258.6185523,2021699.25,7.7725911140441895,-2.3937761783599854,5.6732497215271,0.580152690410614,-0.6259542107582092,-1.2213740348815918,3023.02392578125,1387.0,1395.6043701171875,232.72727966308594,257.8125
1911258.62107,2021707.125,7.763016223907471,-2.412926435470581,5.651705741882324,0.885496199131012,-0.885496199131012,-1.267175555229187,3023.02392578125,1387.0,1395.6043701171875,232.72727966308594,257.8125
1911258.6334814,2021714.875,7.786953926086426,-2.405745029449463,5.644524097442627,0.8244274854660034,-0.7022900581359863,-1.2213740348815918,3023.02392578125,1387.0,1395.6043701171875,232.72727966308594,257.8125
1911258.6339061,2021722.75,7.794135093688965,-2.412926435470581,5.646917819976807,0.6106870174407959,-0.8244274854660034,-1.1145038604736328,3018.8642578125,1388.0,1394.13916015625,232.72727966308594,257.8125
1911258.6486395,2021730.5,7.8132853507995605,-2.4105327129364014,5.627768039703369,0.2442748099565506,-0.7938931584358215,-1.4045801162719727,3023.02392578125,1387.0,1391.94140625,232.72727966308594,257.8125
1911258.6490945,2021738.375,7.7893476486206055,-2.4153201580047607,5.6325554847717285,0.25954198837280273,-0.7938931584358215,-1.1908396482467651,3023.02392578125,1387.0,1390.4761962890625,232.72727966308594,257.8125
1911258.6594038,2021746.125,7.7893476486206055,-2.422501564025879,5.622980117797852,0.47328245639801025,-1.0229008197784424,-1.3435114622116089,3023.02392578125,1387.0,1390.4761962890625,232.72727966308594,257.8125
1911258.671438,2021754.0,7.8061041831970215,-2.4081387519836426,5.620586395263672,0.3206106722354889,-0.8549618124961853,-1.4045801162719727,3018.8642578125,1388.0,1389.010986328125,232.72727966308594,257.8125
1911258.6718554,2021761.75,7.810891628265381,-2.379413604736328,5.6493120193481445,0.4122137427330017,-0.9923664331436157,-1.2213740348815918,3023.02392578125,1387.0,1389.010986328125,232.72727966308594,257.8125
1911258.6826948,2021769.625,7.810891628265381,-2.4416518211364746,5.654099464416504,0.6259542107582092,-1.1145038604736328,-1.2519084215164185,3018.8642578125,1388.0,1389.010986328125,232.72727966308594,257.8125
1911258.690339,2021777.375,7.834829330444336,-2.412926435470581,5.67085599899292,0.4122137427330017,-1.496183156967163,-1.0076335668563843,3023.02392578125,1387.0,1387.5457763671875,232.72727966308594,257.8125
1911258.6984078,2021785.25,7.803710460662842,-2.4105327129364014,5.67085599899292,0.7175572514533997,-0.9618320465087891,-1.0687023401260376,3018.8642578125,1388.0,1387.5457763671875,232.72727966308594,257.8125
1911258.7052906,2021793.0,7.8132853507995605,-2.4488329887390137,5.678037166595459,1.0229008197784424,-1.2366411685943604,-1.1755725145339966,3018.8642578125,1388.0,1386.08056640625,232.72727966308594,257.8125
1911258.7136249,2021800.875,7.820466995239258,-2.412926435470581,5.651705741882324,1.2366411685943604,-1.4809160232543945,-1.4351145029067993,3018.8642578125,1388.0,1386.08056640625,232.72727966308594,257.8125
1911258.7224039,2021808.625,7.8228607177734375,-2.388988733291626,5.678037166595459,1.2061069011688232,-1.5114504098892212,-1.5114504098892212,3018.8642578125,1388.0,1388.2784423828125,232.72727966308594,257.8125
1911258.733273,2021816.5,7.8132853507995605,-2.4105327129364014,5.697187423706055,1.4351145029067993,-1.2824426889419556,-1.7099236249923706,3014.716064453125,1389.0,1392.6739501953125,232.72727966308594,257.8125
1911258.7393605,2021824.25,7.794135093688965,-2.4488329887390137,5.668461799621582,1.7862595319747925,-1.4045801162719727,-2.1679389476776123,3018.8642578125,1388.0,1396.3370361328125,232.72727966308594,257.8125
1911258.7544819,2021832.125,7.779772758483887,-2.4679832458496094,5.682824611663818,1.893129825592041,-1.8625954389572144,-2.0,3014.716064453125,1389.0,1399.2674560546875,232.72727966308594,257.8125
1911258.7563167,2021839.875,7.810891628265381,-2.381807327270508,5.663674354553223,1.4503816366195679,-1.6030534505844116,-2.076335906982422,3018.8642578125,1388.0,1401.4652099609375,196.92308044433594,304.6875
1911258.7614575,2021847.75,7.834829330444336,-2.3506882190704346,5.678037166595459,0.7022900581359863,-1.5114504098892212,-1.877862572669983,3014.716064453125,1389.0,1406.5933837890625,196.92308044433594,304.6875
1911258.7734681,2021855.5,7.825254440307617,-2.396169900894165,5.685218334197998,0.6564885377883911,-1.9083969593048096,-1.2977099418640137,3018.8642578125,1388.0,1410.2564697265625,196.92308044433594,304.6875
1911258.7821847,2021863.375,7.863554954528809,-2.331537961959839,5.642130374908447,0.015267175622284412,-2.0,-1.2213740348815918,3014.716064453125,1389.0,1410.2564697265625,196.92308044433594,304.6875
1911258.7884084,2021871.125,7.810891628265381,-2.3578696250915527,5.67085599899292,-0.3206106722354889,-1.4503816366195679,-1.6030534505844116,3010.5791015625,1390.0,1410.989013671875,196.92308044433594,304.6875
1911258.7892205,2021879.0,7.794135093688965,-2.405745029449463,5.637342929840088,0.4122137427330017,-1.1755725145339966,-1.5572519302368164,3014.716064453125,1389.0,1410.989013671875,196.92308044433594,304.6875
1911258.801723,2021886.75,7.803710460662842,-2.3937761783599854,5.67085599899292,0.9465649127960205,-0.7786259651184082,-1.3740458488464355,3014.716064453125,1389.0,1410.989013671875,196.92308044433594,304.6875
1911258.8128139,2021894.625,7.801316738128662,-2.3674447536468506,5.728306293487549,0.9465649127960205,-1.0687023401260376,-1.4198473691940308,3018.8642578125,1388.0,1413.186767578125,196.92308044433594,304.6875
1911258.8154913,2021902.375,7.803710460662842,-2.405745029449463,5.749850273132324,1.801526665687561,-1.1145038604736328,-2.076335906982422,3014.716064453125,1389.0,1413.91943359375,196.92308044433594,304.6875
1911258.8350842,2021910.25,7.808497905731201,-2.4416518211364746,5.792938232421875,2.2748091220855713,-1.9083969593048096,-2.183206081390381,3010.5791015625,1390.0,1413.186767578125,196.92308044433594,304.6875
1911258.8357246,2021918.0,7.779772758483887,-2.4153201580047607,5.7642130851745605,1.6335878372192383,-1.8320610523223877,-2.030534267425537,3018.8642578125,1388.0,1411.7215576171875,196.92308044433594,304.6875
1911258.8421081,2021925.875,7.7893476486206055,-2.42010760307312,5.745062828063965,1.2519084215164185,-1.7404580116271973,-1.7404580116271973,3014.716064453125,1389.0,1410.2564697265625,196.92308044433594,304.6875
1911258.8440815,2021933.625,7.801316738128662,-2.403351306915283,5.780969619750977,1.4809160232543945,-2.213740348815918,-1.267175555229187,3014.716064453125,1389.0,1406.5933837890625,196.92308044433594,304.6875
1911258.8601158,2021941.5,7.786953926086426,-2.37223219871521,5.733093738555908,1.2213740348815918,-2.3053436279296875,-1.496183156967163,3010.5791015625,1390.0,1403.6629638671875,196.92308044433594,304.6875
1911258.8606781,2021949.25,7.849192142486572,-2.3506882190704346,5.694793701171875,1.801526665687561,-2.564885377883911,-1.1297709941864014,3010.5791015625,1390.0,1401.4652099609375,196.92308044433594,304.6875
1911258.8690077,2021957.125,7.868342399597168,-2.338719367980957,5.644524097442627,2.1526718139648438,-2.1221373081207275,-0.9312977194786072,3010.5791015625,1390.0,1400.7325439453125,196.92308044433594,304.6875
1911258.884041,2021964.875,7.880311012268066,-2.3195691108703613,5.622980117797852,2.1526718139648438,-1.6793893575668335,-1.4351145029067993,3010.5791015625,1390.0,1398.5347900390625,196.92308044433594,304.6875
1911258.8924838,2021972.75,7.923398971557617,-2.2166366577148438,5.627768039703369,1.6030534505844116,-1.1908396482467651,-1.3740458488464355,3010.5791015625,1390.0,1398.5347900390625,196.92308044433594,304.6875
1911258.9031105,2021980.5,7.892280101776123,-2.2357869148254395,5.627768039703369,1.6641221046447754,-0.8091602921485901,-1.267175555229187,3010.5791015625,1390.0,1400.7325439453125,196.92308044433594,304.6875
1911258.9036068,2021988.375,7.880311012268066,-2.2166366577148438,5.618192672729492,1.2213740348815918,0.25954198837280273,-1.6488549709320068,3010.5791015625,1390.0,1402.19775390625,196.92308044433594,304.6875
1911258.9041492,2021996.125,7.863554954528809,-2.250149726867676,5.661280632019043,1.496183156967163,0.3358778655529022,-1.5267175436019897,3010.5791015625,1390.0,1404.3956298828125,196.92308044433594,304.6875
1911258.9192562,2022004.0,7.7725911140441895,-2.365050792694092,5.634949207305908,1.8473281860351562,0.290076345205307,-1.9236640930175781,3010.5791015625,1390.0,1408.05859375,196.92308044433594,304.6875
1911258.9197475,2022011.75,7.7725911140441895,-2.348294496536255,5.71633768081665,2.458015203475952,0.7938931584358215,-2.3816792964935303,3010.5791015625,1390.0,1413.91943359375,196.92308044433594,304.6875
1911258.9304341,2022019.625,7.786953926086426,-2.3339316844940186,5.692399978637695,2.610687017440796,0.8396946787834167,-2.0916030406951904,3010.5791015625,1390.0,1422.7105712890625,196.92308044433594,304.6875
1911258.9362414,2022027.375,7.763016223907471,-2.3578696250915527,5.709156036376953,3.2366411685943604,0.6717557311058044,-2.2595419883728027,3010.5791015625,1390.0,1429.3040771484375,196.92308044433594,304.6875
1911258.9491353,2022035.25,7.763016223907471,-2.3363256454467773,5.7235188484191895,3.6946563720703125,0.5954198241233826,-1.9541984796524048,3010.5791015625,1390.0,1435.164794921875,196.92308044433594,304.6875
1911258.9578761,2022043.0,7.748653411865234,-2.3363256454467773,5.71873140335083,4.366412162780762,0.7022900581359863,-2.030534267425537,3006.45361328125,1391.0,1436.6300048828125,196.92308044433594,304.6875
1911258.9664504,2022050.875,7.791741371154785,-2.2956314086914062,5.709156036376953,4.4122138023376465,0.7786259651184082,-2.137404680252075,3010.5791015625,1390.0,1433.6995849609375,196.92308044433594,304.6875
1911258.976082,2022058.625,7.810891628265381,-2.2357869148254395,5.711549758911133,3.9083969593048096,0.8396946787834167,-2.0458016395568848,3006.45361328125,1391.0,1431.5018310546875,196.92308044433594,304.6875
1911258.9769373,2022066.5,7.801316738128662,-2.28126859664917,5.733093738555908,3.4809160232543945,0.9770992398262024,-1.893129825592041,3006.45361328125,1391.0,1425.6409912109375,196.92308044433594,304.6875
1911258.9892915,2022074.25,7.820466995239258,-2.2860562801361084,5.699581146240234,3.923664093017578,1.2977099418640137,-2.3053436279296875,3006.45361328125,1391.0,1418.3150634765625,196.92308044433594,304.6875
1911259.0030153,2022082.125,7.885098934173584,-2.257330894470215,5.711549758911133,3.6946563720703125,2.1221373081207275,-2.5190839767456055,3006.45361328125,1391.0,1410.989013671875,196.92308044433594,304.6875
1911259.0079494,2022089.875,7.880311012268066,-2.2190306186676025,5.699581146240234,2.778625965118408,2.7633588314056396,-2.1221373081207275,3006.45361328125,1391.0,1400.7325439453125,196.92308044433594,304.6875
1911259.017102,2022097.75,7.803710460662842,-2.2860562801361084,5.690005779266357,2.4122138023376465,3.1603052616119385,-2.1679389476776123,3006.45361328125,1391.0,1392.6739501953125,196.92308044433594,304.6875
1911259.0175632,2022105.5,7.81567907333374,-2.274087429046631,5.646917819976807,0.9618320465087891,3.175572633743286,-1.267175555229187,3006.45361328125,1391.0,1385.3480224609375,196.92308044433594,304.6875
1911259.0284602,2022113.375,7.837223052978516,-2.2836625576019287,5.7235188484191895,1.3587785959243774,3.175572633743286,-1.5267175436019897,3002.33935546875,1392.0,1378.754638671875,196.92308044433594,304.6875
1911259.0368809,2022121.125,7.7965288162231445,-2.305206537246704,5.76900053024292,2.85496187210083,2.3664121627807617,-1.6030534505844116,3006.45361328125,1391.0,1375.091552734375,196.92308044433594,304.6875
1911259.0372396,2022129.0,7.791741371154785,-2.329144239425659,5.776181697845459,3.6641221046447754,1.6793893575668335,-1.893129825592041,3002.33935546875,1392.0,1377.2894287109375,196.92308044433594,304.6875
1911259.0489783,2022136.75,7.758228778839111,-2.321962833404541,5.819270133972168,3.755725145339966,1.2977099418640137,-1.4351145029067993,3002.33935546875,1392.0,1380.2197265625,196.92308044433594,304.6875
1911259.057865,2022144.625,7.758228778839111,-2.307600259780884,5.792938232421875,3.4045801162719727,0.5648854970932007,-1.9389313459396362,3002.33935546875,1392.0,1381.6849365234375,196.92308044433594,304.6875
1911259.0658249,2022152.375,7.7725911140441895,-2.3243565559387207,5.826451301574707,2.5190839767456055,0.290076345205307,-1.572519063949585,3002.33935546875,1392.0,1384.6153564453125,192.0,312.5
1911259.0758514,2022160.25,7.77019739151001,-2.307600259780884,5.795331954956055,2.137404680252075,0.35114502906799316,-1.801526665687561,3002.33935546875,1392.0,1387.5457763671875,192.0,312.5
1911259.0818052,2022168.0,7.729503154754639,-2.28126859664917,5.819270133972168,3.1603052616119385,-0.015267175622284412,-1.7099236249923706,2998.236328125,1393.0,1388.2784423828125,192.0,312.5
1911259.0908335,2022175.875,7.763016223907471,-2.2669060230255127,5.824057579040527,2.9160306453704834,-0.1221374049782753,-1.3435114622116089,3002.33935546875,1392.0,1387.5457763671875,192.0,312.5
1911259.0974119,2022183.625,7.7965288162231445,-2.2525434494018555,5.752243995666504,2.7633588314056396,-0.10687022656202316,-1.3129770755767822,2998.236328125,1393.0,1387.5457763671875,192.0,312.5
1911259.1117231,2022191.5,7.844404697418213,-2.2214243412017822,5.71873140335083,1.9083969593048096,-0.22900763154029846,-1.1755725145339966,2998.236328125,1393.0,1383.150146484375,192.0,312.5
1911259.1122041,2022199.25,7.849192142486572,-2.2333931922912598,5.737881660461426,1.3587785959243774,-0.07633587718009949,-1.5267175436019897,3002.33935546875,1392.0,1380.952392578125,192.0,312.5
1911259.114715,2022207.125,7.887492656707764,-2.2022740840911865,5.749850273132324,-0.030534351244568825,0.290076345205307,-1.1297709941864014,3002.33935546875,1392.0,1380.2197265625,192.0,312.5
1911259.1301688,2022214.875,7.808497905731201,-2.274087429046631,5.687612056732178,-0.8091602921485901,-0.015267175622284412,-1.2519084215164185,3002.33935546875,1392.0,1377.2894287109375,192.0,312.5
1911259.1341237,2022222.75,7.786953926086426,-2.3099939823150635,5.72112512588501,-0.5496183037757874,0.18320611119270325,-1.7099236249923706,2998.236328125,1393.0,1375.82421875,192.0,312.5
1911259.1451437,2022230.5,7.791741371154785,-2.3267505168914795,5.742669105529785,0.39694657921791077,0.04580152779817581,-1.8167939186096191,2998.236328125,1393.0,1371.4285888671875,192.0,312.5
1911259.152153,2022238.375,7.763016223907471,-2.3195691108703613,5.7570319175720215,0.5496183037757874,-0.35114502906799316,-1.9236640930175781,2998.236328125,1393.0,1369.230712890625,192.0,312.5
1911259.1607003,2022246.125,7.758228778839111,-2.321962833404541,5.76660680770874,1.2213740348815918,-0.9160305261611938,-1.6793893575668335,2998.236328125,1393.0,1369.96337890625,192.0,312.5
1911259.1760622,2022254.0,7.774984836578369,-2.288450002670288,5.773787975311279,1.572519063949585,-0.6717557311058044,-1.4198473691940308,2998.236328125,1393.0,1371.4285888671875,192.0,312.5
1911259.1781271,2022261.75,7.77019739151001,-2.28126859664917,5.780969619750977,1.2519084215164185,-1.389312982559204,-1.267175555229187,2998.236328125,1393.0,1375.82421875,192.0,312.5
1911259.1887131,2022269.625,7.846798419952393,-2.1926989555358887,5.759425640106201,-0.21374045312404633,-0.7786259651184082,-1.160305380821228,2994.14453125,1394.0,1380.2197265625,192.0,312.5
1911259.1891394,2022277.375,7.844404697418213,-2.1376421451568604,5.745062828063965,-0.8244274854660034,-0.13740457594394684,-0.5343511700630188,2998.236328125,1393.0,1386.08056640625,192.0,312.5
1911259.1969933,2022285.25,7.794135093688965,-2.254937171936035,5.742669105529785,-0.35114502906799316,0.10687022656202316,-1.3282443284988403,2998.236328125,1393.0,1388.2784423828125,192.0,312.5
1911259.2120068,2022293.0,7.76540994644165,-2.274087429046631,5.761819362640381,0.10687022656202316,0.1679389327764511,-1.2366411685943604,2998.236328125,1393.0,1387.5457763671875,192.0,312.5
1911259.2123646,2022300.875,7.784560203552246,-2.271693706512451,5.804907321929932,0.3206106722354889,0.21374045312404633,-1.2366411685943604,2998.236328125,1393.0,1383.8828125,192.0,312.5
1911259.2230069,2022308.625,7.751047134399414,-2.307600259780884,5.819270133972168,0.8091602921485901,0.15267175436019897,-1.1297709941864014,2994.14453125,1394.0,1380.952392578125,192.0,312.5
1911259.2291741,2022316.5,7.7725911140441895,-2.305206537246704,5.828845024108887,1.1297709941864014,-0.09160305559635162,-1.0992366075515747,2998.236328125,1393.0,1380.2197265625,192.0,312.5
1911259.2360895,2022324.25,7.777379035949707,-2.307600259780884,5.804907321929932,0.8549618124961853,-0.2748091518878937,-0.9465649127960205,2998.236328125,1393.0,1379.4871826171875,192.0,312.5
1911259.2498708,2022332.125,7.791741371154785,-2.2429683208465576,5.800119876861572,0.2442748099565506,-0.38167938590049744,-1.0534350872039795,2998.236328125,1393.0,1377.2894287109375,192.0,312.5
1911259.2502313,2022339.875,7.81807279586792,-2.2692997455596924,5.795331954956055,-0.015267175622284412,-0.8091602921485901,-1.3740458488464355,2998.236328125,1393.0,1376.5567626953125,192.0,312.5
1911259.2598875,2022347.75,7.7893476486206055,-2.2860562801361084,5.7642130851745605,-0.19847328960895538,-0.25954198837280273,-1.5267175436019897,2998.236328125,1393.0,1378.754638671875,192.0,312.5
1911259.2719076,2022355.5,7.81567907333374,-2.254937171936035,5.7570319175720215,-0.885496199131012,-0.290076345205307,-1.160305380821228,2994.14453125,1394.0,1380.2197265625,192.0,312.5
1911259.2789262,2022363.375,7.7893476486206055,-2.2357869148254395,5.7642130851745605,-1.0839694738388062,0.290076345205307,-1.2213740348815918,2998.236328125,1393.0,1378.754638671875,192.0,312.5
1911259.2889518,2022371.125,7.753440856933594,-2.2764811515808105,5.776181697845459,-0.8396946787834167,-0.1679389327764511,-1.2519084215164185,2994.14453125,1394.0,1378.02197265625,192.0,312.5
1911259.2894766,2022379.0,7.758228778839111,-2.2621185779571533,5.788150787353516,-1.3129770755767822,-0.290076345205307,-1.14503812789917,2994.14453125,1394.0,1377.2894287109375,192.0,312.5
1911259.2984924,2022386.75,7.794135093688965,-2.250149726867676,5.809694766998291,-1.389312982559204,-0.15267175436019897,-1.0076335668563843,2994.14453125,1394.0,1378.754638671875,192.0,312.5
1911259.3067081,2022394.625,7.753440856933594,-2.2788748741149902,5.809694766998291,-1.7404580116271973,-0.6717557311058044,-1.0076335668563843,2994.14453125,1394.0,1380.2197265625,192.0,312.5
1911259.3128683,2022402.375,7.741472244262695,-2.307600259780884,5.785757064819336,-1.3740458488464355,-0.9007633328437805,-0.9465649127960205,2994.14453125,1394.0,1383.8828125,192.0,312.5
1911259.3206954,2022410.25,7.753440856933594,-2.3171753883361816,5.773787975311279,-0.9465649127960205,-0.9160305261611938,-1.0076335668563843,2994.14453125,1394.0,1389.7435302734375,192.0,312.5
1911259.3340964,2022418.0,7.736684799194336,-2.329144239425659,5.783363342285156,-0.9312977194786072,-1.2824426889419556,-0.8244274854660034,2990.06396484375,1395.0,1394.871826171875,192.0,312.5
1911259.344439,2022425.875,7.748653411865234,-2.3099939823150635,5.752243995666504,-0.7633587718009949,-1.2824426889419556,-1.14503812789917,2994.14453125,1394.0,1399.2674560546875,219.42857360839844,273.4375
1911259.3449664,2022433.625,7.755835056304932,-2.3028125762939453,5.76660680770874,-0.7480915784835815,-1.267175555229187,-1.0992366075515747,2990.06396484375,1395.0,1405.86083984375,219.42857360839844,273.4375
1911259.366385,2022441.5,7.810891628265381,-2.274087429046631,5.711549758911133,-0.9312977194786072,-1.0992366075515747,-1.4045801162719727,2990.06396484375,1395.0,1410.2564697265625,219.42857360839844,273.4375
1911259.3675637,2022449.25,7.774984836578369,-2.274087429046631,5.685218334197998,-0.6412213444709778,-0.885496199131012,-1.1755725145339966,2990.06396484375,1395.0,1409.5238037109375,219.42857360839844,273.4375
1911259.3719907,2022457.125,7.76540994644165,-2.2836625576019287,5.704368591308594,-0.3358778655529022,-0.8702290058135986,-1.3435114622116089,2994.14453125,1394.0,1406.5933837890625,219.42857360839844,273.4375
