timestamp,TIMESTAMP,ACCEL_X,ACCEL_Y,ACCEL_Z,GYRO_P,GYRO_R,GYRO_Y,GSR_RES,GSR_CON,PPG_RAW,HEART_RATE,HRV
1912156.1375826,2919230.5,-0.08856971561908722,-0.2202274054288864,-9.977258682250977,0.7480915784835815,0.09160305559635162,-1.6793893575668335,720.0946044921875,3708.0,1406.5933837890625,187.31707763671875,140.625
1912156.1444774,2919238.25,-0.0694195106625557,-0.22501495480537415,-9.991621971130371,1.14503812789917,0.5496183037757874,-1.5572519302368164,717.26953125,3720.0,1409.5238037109375,187.31707763671875,140.625
1912156.1495875,2919246.0,-0.0550568513572216,-0.26570916175842285,-9.960502624511719,-0.39694657921791077,-0.38167938590049744,-1.6641221046447754,721.2783203125,3703.0,1409.5238037109375,187.31707763671875,140.625
1912156.1499697,2919254.0,-0.0694195106625557,-0.22501495480537415,-9.99880313873291,-0.8244274854660034,-0.9923664331436157,-1.3129770755767822,716.0989990234375,3725.0,1405.128173828125,187.31707763671875,140.625
1912156.1610212,2919261.75,-0.06463195383548737,-0.23698383569717407,-9.99880313873291,-1.267175555229187,-1.5572519302368164,-1.4198473691940308,718.6793212890625,3714.0,1406.5933837890625,187.31707763671875,140.625
1912156.1696258,2919269.5,-0.0694195106625557,-0.21065230667591095,-9.970077514648438,-1.2824426889419556,-1.0229008197784424,-1.2213740348815918,719.8583374023438,3709.0,1408.05859375,187.31707763671875,140.625
1912156.1836197,2919277.25,-0.07181328535079956,-0.21065230667591095,-9.967683792114258,-0.9770992398262024,-1.1145038604736328,-1.2519084215164185,715.6318359375,3727.0,1406.5933837890625,187.31707763671875,140.625
1912156.1927592,2919285.25,-0.06702573597431183,-0.1938958764076233,-9.941352844238281,-0.7938931584358215,-1.160305380821228,-1.4351145029067993,719.6222534179688,3710.0,1404.3956298828125,187.31707763671875,140.625
1912156.1930479,2919293.0,-0.07899461686611176,-0.2010771930217743,-9.943746566772461,-0.5954198241233826,-0.442748099565506,-1.1908396482467651,715.3984375,3728.0,1403.6629638671875,187.31707763671875,140.625
1912156.2003503,2919300.75,-0.06463195383548737,-0.2345900684595108,-9.95571517944336,-0.10687022656202316,-0.47328245639801025,-1.267175555229187,716.5667724609375,3723.0,1406.5933837890625,187.31707763671875,140.625
1912156.2048349,2919308.5,-0.03590664267539978,-0.21543985605239868,-9.962896347045898,-0.15267175436019897,-0.3664122223854065,-1.5267175436019897,719.1504516601562,3712.0,1405.128173828125,187.31707763671875,140.625
1912156.2162544,2919316.5,-0.05745062977075577,-0.24416516721248627,-9.99401569366455,-1.160305380821228,-0.8091602921485901,-1.2366411685943604,714.0015258789062,3734.0,1399.2674560546875,187.31707763671875,140.625
1912156.2291913,2919324.25,-0.06463195383548737,-0.2633153796195984,-9.965290069580078,-0.885496199131012,-1.160305380821228,-1.4198473691940308,718.4439697265625,3715.0,1396.3370361328125,187.31707763671875,140.625
1912156.2399947,2919332.0,-0.09335727244615555,-0.25134649872779846,-9.982047080993652,-1.2061069011688232,-1.2366411685943604,-1.2213740348815918,715.3984375,3728.0,1397.80224609375,187.31707763671875,140.625
1912156.2448323,2919339.75,-0.08138839155435562,-0.23219628632068634,-9.972471237182617,-1.0687023401260376,-1.2061069011688232,-1.5267175436019897,715.3984375,3728.0,1401.4652099609375,187.31707763671875,140.625
1912156.2569837,2919347.75,-0.11490125954151154,-0.23937761783599854,-9.960502624511719,-0.8549618124961853,-0.6717557311058044,-1.2824426889419556,717.9737548828125,3717.0,1402.19775390625,187.31707763671875,140.625
1912156.2573662,2919355.5,-0.09814482182264328,-0.22262118756771088,-9.974864959716797,-0.8549618124961853,-0.9160305261611938,-1.2519084215164185,712.8416137695312,3739.0,1401.4652099609375,187.31707763671875,140.625
1912156.2670391,2919363.25,-0.09096349775791168,-0.21543985605239868,-9.94614028930664,-0.7633587718009949,-0.7175572514533997,-1.160305380821228,717.03515625,3721.0,1401.4652099609375,187.31707763671875,140.625
1912156.2673927,2919371.0,-0.09335727244615555,-0.2082585245370865,-9.967683792114258,-0.5648854970932007,-0.7633587718009949,-1.7404580116271973,715.6318359375,3727.0,1402.930419921875,187.31707763671875,140.625
1912156.282193,2919379.0,-0.09575104713439941,-0.21065230667591095,-9.958108901977539,-0.7022900581359863,-0.5648854970932007,-1.2977099418640137,713.537109375,3736.0,1400.7325439453125,187.31707763671875,140.625
1912156.2909464,2919386.75,-0.08617594093084335,-0.21543985605239868,-9.989228248596191,-0.5190839767456055,-0.5954198241233826,-0.9312977194786072,717.26953125,3720.0,1396.3370361328125,187.31707763671875,140.625
1912156.3000446,2919394.5,-0.04308797046542168,-0.21543985605239868,-9.979653358459473,-0.35114502906799316,-0.39694657921791077,-1.496183156967163,712.1474609375,3742.0,1394.13916015625,187.31707763671875,140.625
1912156.3059181,2919402.25,-0.059844404458999634,-0.22501495480537415,-9.982047080993652,0.0,-0.10687022656202316,-1.0534350872039795,715.6318359375,3727.0,1395.6043701171875,187.31707763671875,140.625
1912156.306205,2919410.25,-0.07181328535079956,-0.2202274054288864,-9.960502624511719,0.42748090624809265,0.09160305559635162,-1.2977099418640137,715.3984375,3728.0,1401.4652099609375,187.31707763671875,140.625
1912156.3191536,2919418.0,-0.0550568513572216,-0.241771399974823,-9.943746566772461,0.09160305559635162,-0.04580152779817581,-1.0534350872039795,712.6100463867188,3740.0,1400.7325439453125,187.31707763671875,140.625
1912156.3280254,2919425.75,-0.04787552356719971,-0.241771399974823,-9.962896347045898,-0.5190839767456055,-0.47328245639801025,-1.3129770755767822,716.8008422851562,3722.0,1399.2674560546875,187.31707763671875,140.625
1912156.3333209,2919433.5,-0.0694195106625557,-0.23937761783599854,-9.99640941619873,-1.1908396482467651,-1.1145038604736328,-1.3129770755767822,712.1474609375,3742.0,1399.2674560546875,187.31707763671875,140.625
1912156.3393101,2919441.5,-0.08138839155435562,-0.241771399974823,-9.982047080993652,-1.5114504098892212,-1.4809160232543945,-1.3129770755767822,714.2340087890625,3733.0,1402.930419921875,187.31707763671875,140.625
1912156.3530215,2919449.25,-0.08138839155435562,-0.21783363819122314,-9.974864959716797,-1.4198473691940308,-1.2366411685943604,-1.3740458488464355,715.8652954101562,3726.0,1402.19775390625,187.31707763671875,140.625
1912156.3624267,2919457.0,-0.1101137027144432,-0.21304607391357422,-9.960502624511719,-1.1145038604736328,-0.9007633328437805,-1.2061069011688232,711.6854248046875,3744.0,1393.4066162109375,187.31707763671875,140.625
1912156.3628783,2919464.75,-0.1172950342297554,-0.2202274054288864,-10.00119686126709,-0.22900763154029846,-0.6717557311058044,-1.1908396482467651,715.8652954101562,3726.0,1387.5457763671875,187.31707763671875,140.625
1912156.3713853,2919472.75,-0.08617594093084335,-0.241771399974823,-9.962896347045898,-0.09160305559635162,-0.3206106722354889,-0.9923664331436157,711.9163818359375,3743.0,1386.813232421875,187.31707763671875,140.625
1912156.3799694,2919480.5,-0.09096349775791168,-0.248952716588974,-9.989228248596191,-0.13740457594394684,-0.5648854970932007,-1.267175555229187,713.0733032226562,3738.0,1391.208740234375,187.31707763671875,140.625
1912156.3974195,2919488.25,-0.08617594093084335,-0.2274087369441986,-9.95571517944336,-0.7938931584358215,-0.7786259651184082,-1.389312982559204,715.6318359375,3727.0,1394.13916015625,187.31707763671875,140.625
1912156.4043449,2919496.0,-0.0694195106625557,-0.24655894935131073,-9.938959121704102,-1.0839694738388062,-1.3587785959243774,-1.4503816366195679,710.532958984375,3749.0,1392.6739501953125,187.31707763671875,140.625
1912156.4049378,2919504.0,-0.0694195106625557,-0.26570916175842285,-9.967683792114258,-1.1755725145339966,-1.2366411685943604,-1.2977099418640137,714.6993408203125,3731.0,1393.4066162109375,187.31707763671875,140.625
1912156.4122488,2919511.75,-0.06702573597431183,-0.24416516721248627,-10.00119686126709,-0.9618320465087891,-1.0076335668563843,-1.4045801162719727,712.6100463867188,3740.0,1397.069580078125,187.31707763671875,320.3125
1912156.4184908,2919519.5,-0.07660083472728729,-0.2274087369441986,-10.020346641540527,-0.8396946787834167,-0.7786259651184082,-1.1908396482467651,711.9163818359375,3743.0,1399.2674560546875,187.31707763671875,320.3125
1912156.4295603,2919527.25,-0.0694195106625557,-0.21783363819122314,-9.977258682250977,-0.442748099565506,-0.38167938590049744,-1.389312982559204,715.165283203125,3729.0,1397.80224609375,187.31707763671875,320.3125
1912156.440555,2919535.25,-0.05266307666897774,-0.21065230667591095,-9.965290069580078,-0.7480915784835815,-0.7022900581359863,-1.2366411685943604,709.8433227539062,3752.0,1396.3370361328125,187.31707763671875,320.3125
1912156.4408491,2919543.0,-0.06463195383548737,-0.20347097516059875,-9.960502624511719,-0.5954198241233826,-0.9160305261611938,-1.496183156967163,714.0015258789062,3734.0,1400.7325439453125,187.31707763671875,320.3125
1912156.4561941,2919550.75,-0.05026929825544357,-0.21304607391357422,-10.09455394744873,-1.1755725145339966,-1.1908396482467651,-1.1755725145339966,712.8416137695312,3739.0,1404.3956298828125,187.31707763671875,320.3125
1912156.4565272,2919558.5,-0.0550568513572216,-0.21304607391357422,-9.982047080993652,-1.1145038604736328,-1.2213740348815918,-1.3587785959243774,710.76318359375,3748.0,1402.930419921875,187.31707763671875,320.3125
1912156.4686883,2919566.5,-0.06702573597431183,-0.20586475729942322,-9.958108901977539,-1.14503812789917,-0.9923664331436157,-1.1145038604736328,714.466552734375,3732.0,1398.5347900390625,187.31707763671875,320.3125
1912156.4793223,2919574.25,-0.038300417363643646,-0.21783363819122314,-9.967683792114258,-0.5190839767456055,-0.8091602921485901,-1.3129770755767822,709.38427734375,3754.0,1395.6043701171875,187.31707763671875,320.3125
1912156.4797832,2919582.0,-0.06702573597431183,-0.2345900684595108,-9.99640941619873,0.030534351244568825,-0.38167938590049744,-1.572519063949585,712.378662109375,3741.0,1396.3370361328125,187.31707763671875,320.3125
1912156.4891981,2919589.75,-0.04787552356719971,-0.241771399974823,-9.962896347045898,0.030534351244568825,-0.21374045312404633,-1.1908396482467651,713.0733032226562,3738.0,1400.0,187.31707763671875,320.3125
1912156.4962174,2919597.75,-0.08138839155435562,-0.24655894935131073,-9.94614028930664,0.1221374049782753,-0.22900763154029846,-1.2213740348815918,709.38427734375,3754.0,1397.069580078125,187.31707763671875,320.3125
1912156.5088483,2919605.5,-0.0622381791472435,-0.27289047837257385,-9.94853401184082,-1.3587785959243774,-1.160305380821228,-1.0229008197784424,713.537109375,3736.0,1394.13916015625,187.31707763671875,320.3125
1912156.5177026,2919613.25,-0.07660083472728729,-0.26570916175842285,-9.936565399169922,-0.9770992398262024,-0.9465649127960205,-1.3282443284988403,709.38427734375,3754.0,1394.13916015625,187.31707763671875,320.3125
1912156.5250842,2919621.0,-0.07660083472728729,-0.23219628632068634,-9.991621971130371,-0.9007633328437805,-1.0534350872039795,-1.4351145029067993,711.2239990234375,3746.0,1396.3370361328125,187.31707763671875,320.3125
1912156.5313227,2919629.0,-0.09814482182264328,-0.21783363819122314,-9.982047080993652,-1.0229008197784424,-0.7633587718009949,-1.1755725145339966,713.0733032226562,3738.0,1394.871826171875,187.31707763671875,320.3125
1912156.5379247,2919636.75,-0.10293237864971161,-0.2345900684595108,-9.991621971130371,-0.7633587718009949,-1.160305380821228,-1.267175555229187,708.4679565429688,3758.0,1387.5457763671875,187.31707763671875,320.3125
1912156.5576271,2919644.5,-0.10053859651088715,-0.23219628632068634,-9.991621971130371,-1.2213740348815918,-1.1755725145339966,-1.2977099418640137,712.8416137695312,3739.0,1381.6849365234375,187.31707763671875,320.3125
1912156.5580322,2919652.25,-0.08856971561908722,-0.241771399974823,-9.938959121704102,-1.0229008197784424,-1.1145038604736328,-1.389312982559204,709.6137084960938,3753.0,1383.8828125,187.31707763671875,320.3125
1912156.5583781,2919660.25,-0.07899461686611176,-0.22980251908302307,-9.95332145690918,-1.2061069011688232,-1.3435114622116089,-1.3282443284988403,709.8433227539062,3752.0,1391.94140625,187.31707763671875,320.3125
1912156.5681675,2919668.0,-0.059844404458999634,-0.22262118756771088,-9.965290069580078,-0.9007633328437805,-0.580152690410614,-1.4045801162719727,712.8416137695312,3739.0,1394.871826171875,187.31707763671875,320.3125
1912156.5729261,2919675.75,-0.059844404458999634,-0.23698383569717407,-10.017952919006348,-0.6106870174407959,-0.6717557311058044,-1.465648889541626,707.5540161132812,3762.0,1394.13916015625,187.31707763671875,320.3125
1912156.5855964,2919683.5,-0.04308797046542168,-0.23937761783599854,-9.991621971130371,-0.885496199131012,-0.9465649127960205,-1.4809160232543945,711.9163818359375,3743.0,1396.3370361328125,187.31707763671875,320.3125
1912156.5929243,2919691.5,-0.06702573597431183,-0.22980251908302307,-9.979653358459473,-1.2213740348815918,-1.0687023401260376,-1.0839694738388062,709.8433227539062,3752.0,1399.2674560546875,187.31707763671875,320.3125
1912156.5996938,2919699.25,-0.05266307666897774,-0.22501495480537415,-9.931777000427246,-1.3740458488464355,-1.038167953491211,-1.389312982559204,708.9258422851562,3756.0,1400.0,187.31707763671875,320.3125
1912156.6155911,2919707.0,-0.05745062977075577,-0.22501495480537415,-9.950927734375,-1.14503812789917,-0.9312977194786072,-1.2977099418640137,712.378662109375,3741.0,1396.3370361328125,187.31707763671875,320.3125
1912156.6158991,2919714.75,-0.06463195383548737,-0.1867145448923111,-9.986834526062012,-0.9923664331436157,-1.0076335668563843,-1.5114504098892212,707.0979614257812,3764.0,1391.208740234375,187.31707763671875,320.3125
1912156.6273341,2919722.75,-0.07899461686611176,-0.23698383569717407,-10.013165473937988,-1.2977099418640137,-1.2366411685943604,-1.2213740348815918,710.76318359375,3748.0,1390.4761962890625,187.31707763671875,320.3125
1912156.6276433,2919730.5,-0.07660083472728729,-0.19868342578411102,-9.99640941619873,-0.9923664331436157,-1.0992366075515747,-1.0992366075515747,710.532958984375,3749.0,1392.6739501953125,187.31707763671875,320.3125
1912156.638541,2919738.25,-0.07181328535079956,-0.20586475729942322,-9.977258682250977,-0.8396946787834167,-1.038167953491211,-1.2213740348815918,708.0107421875,3760.0,1391.208740234375,187.31707763671875,320.3125
1912156.6522977,2919746.0,-0.07899461686611176,-0.2274087369441986,-9.99640941619873,-0.5190839767456055,-0.580152690410614,-1.4045801162719727,711.9163818359375,3743.0,1390.4761962890625,187.31707763671875,320.3125
1912156.6595688,2919754.0,-0.08617594093084335,-0.25852781534194946,-9.977258682250977,-0.6870229244232178,-0.9312977194786072,-1.0076335668563843,706.8701171875,3765.0,1389.7435302734375,187.31707763671875,320.3125
1912156.6676753,2919761.75,-0.10771992802619934,-0.23937761783599854,-9.984440803527832,-0.1679389327764511,-0.30534350872039795,-1.801526665687561,709.8433227539062,3752.0,1394.871826171875,187.31707763671875,320.3125
1912156.667989,2919769.5,-0.12926390767097473,-0.22980251908302307,-9.915020942687988,-0.3664122223854065,-0.5954198241233826,-2.6564886569976807,710.9935302734375,3747.0,1397.069580078125,187.31707763671875,320.3125
1912156.6813318,2919777.25,-0.0622381791472435,-0.24416516721248627,-9.90065860748291,0.8396946787834167,0.2748091518878937,-1.2213740348815918,706.8701171875,3765.0,1395.6043701171875,187.31707763671875,320.3125
1912156.6932664,2919785.25,-0.033512867987155914,-0.248952716588974,-10.073010444641113,0.6717557311058044,0.19847328960895538,-1.4503816366195679,710.76318359375,3748.0,1394.13916015625,187.31707763671875,320.3125
1912156.7025753,2919793.0,-0.04787552356719971,-0.241771399974823,-10.00119686126709,0.47328245639801025,0.21374045312404633,-1.3587785959243774,707.325927734375,3763.0,1392.6739501953125,187.31707763671875,320.3125
1912156.706032,2919800.75,-0.02633153833448887,-0.2776780426502228,-9.931777000427246,-2.885496139526367,-3.0534350872039795,-1.801526665687561,708.2392578125,3759.0,1391.94140625,187.31707763671875,320.3125
1912156.7162943,2919808.5,-0.0694195106625557,-0.21304607391357422,-9.950927734375,-2.4732823371887207,-2.29007625579834,-1.038167953491211,710.532958984375,3749.0,1389.7435302734375,187.31707763671875,320.3125
1912156.7263382,2919816.5,-0.0694195106625557,-0.21543985605239868,-9.871932983398438,-1.3129770755767822,-1.2061069011688232,-1.3587785959243774,705.5062866210938,3771.0,1383.8828125,187.31707763671875,320.3125
1912156.7335235,2919824.25,-0.08138839155435562,-0.18192699551582336,-9.90065860748291,0.9465649127960205,0.4885496199131012,-1.2824426889419556,710.0730590820312,3751.0,1383.150146484375,187.31707763671875,320.3125
1912156.7338231,2919832.0,-0.0622381791472435,-0.19150209426879883,-9.950927734375,1.7404580116271973,1.4503816366195679,-1.389312982559204,707.325927734375,3763.0,1385.3480224609375,187.31707763671875,320.3125
1912156.7427255,2919839.75,-0.03590664267539978,-0.2537402808666229,-10.106523513793945,0.5343511700630188,0.5648854970932007,-1.4045801162719727,707.325927734375,3763.0,1389.7435302734375,187.31707763671875,320.3125
1912156.7472014,2919847.75,-0.0550568513572216,-0.241771399974823,-10.082585334777832,0.04580152779817581,-0.47328245639801025,-1.3435114622116089,710.0730590820312,3751.0,1388.2784423828125,187.31707763671875,335.9375
1912156.7574793,2919855.5,-0.028725314885377884,-0.27289047837257385,-10.029922485351562,-1.465648889541626,-1.572519063949585,-1.3740458488464355,705.5062866210938,3771.0,1386.08056640625,187.31707763671875,335.9375
1912156.7706026,2919863.25,-0.07899461686611176,-0.2537402808666229,-9.90305233001709,-2.5190839767456055,-2.2748091220855713,-1.3587785959243774,709.6137084960938,3753.0,1389.010986328125,187.31707763671875,335.9375
1912156.7755239,2919871.0,-0.08617594093084335,-0.25134649872779846,-9.876720428466797,-2.824427366256714,-2.4427480697631836,-1.5267175436019897,708.4679565429688,3758.0,1397.80224609375,187.31707763671875,335.9375
1912156.7840314,2919879.0,-0.10053859651088715,-0.22262118756771088,-9.886295318603516,-2.137404680252075,-1.9236640930175781,-1.4351145029067993,706.4149169921875,3767.0,1402.930419921875,187.31707763671875,335.9375
1912156.7891995,2919886.75,-0.09335727244615555,-0.22501495480537415,-9.960502624511719,-1.1755725145339966,-1.038167953491211,-1.2824426889419556,710.76318359375,3748.0,1402.930419921875,187.31707763671875,335.9375
1912156.8006786,2919894.5,-0.09814482182264328,-0.2202274054288864,-10.017952919006348,-0.1679389327764511,-0.4580152630805969,-1.4198473691940308,706.1875610351562,3768.0,1403.6629638671875,187.31707763671875,335.9375
1912156.809465,2919902.25,-0.08856971561908722,-0.24416516721248627,-10.020346641540527,-0.25954198837280273,-0.6564885377883911,-1.572519063949585,709.38427734375,3754.0,1407.3260498046875,187.31707763671875,335.9375
1912156.8099883,2919910.25,-0.08617594093084335,-0.23219628632068634,-10.056253433227539,-1.0839694738388062,-1.1145038604736328,-1.465648889541626,709.8433227539062,3752.0,1409.5238037109375,187.31707763671875,335.9375
1912156.8163965,2919918.0,-0.06463195383548737,-0.241771399974823,-9.984440803527832,-1.496183156967163,-1.1297709941864014,-1.3435114622116089,707.0979614257812,3764.0,1408.05859375,187.31707763671875,335.9375
1912156.8324877,2919925.75,-0.0694195106625557,-0.21065230667591095,-9.979653358459473,-0.7022900581359863,-0.7175572514533997,-1.2824426889419556,710.9935302734375,3747.0,1398.5347900390625,187.31707763671875,335.9375
1912156.839656,2919933.5,-0.08138839155435562,-0.2082585245370865,-9.89587116241455,0.2442748099565506,-0.22900763154029846,-1.1755725145339966,706.8701171875,3765.0,1390.4761962890625,187.31707763671875,335.9375
1912156.8399705,2919941.5,-0.0694195106625557,-0.2082585245370865,-9.938959121704102,1.1145038604736328,0.22900763154029846,-1.2213740348815918,708.6968383789062,3757.0,1387.5457763671875,187.31707763671875,335.9375
1912156.8490699,2919949.25,-0.05745062977075577,-0.2345900684595108,-9.965290069580078,0.7480915784835815,0.30534350872039795,-1.587786316871643,710.76318359375,3748.0,1386.08056640625,187.31707763671875,335.9375
1912156.8623973,2919957.0,-0.0550568513572216,-0.22501495480537415,-10.00359058380127,0.15267175436019897,-0.07633587718009949,-1.2977099418640137,706.1875610351562,3768.0,1383.150146484375,187.31707763671875,335.9375
1912156.8627267,2919964.75,-0.05026929825544357,-0.24655894935131073,-10.017952919006348,-0.9160305261611938,-0.6870229244232178,-1.160305380821228,710.76318359375,3748.0,1382.4176025390625,187.31707763671875,335.9375
1912156.8785798,2919972.75,-0.04308797046542168,-0.24655894935131073,-9.989228248596191,-1.3740458488464355,-1.0687023401260376,-1.3587785959243774,707.0979614257812,3764.0,1386.813232421875,187.31707763671875,335.9375
1912156.8789275,2919980.5,-0.07420706003904343,-0.22980251908302307,-9.943746566772461,-1.3282443284988403,-1.2824426889419556,-1.1297709941864014,708.0107421875,3760.0,1394.871826171875,187.31707763671875,335.9375
1912156.8884354,2919988.25,-0.07181328535079956,-0.2274087369441986,-9.94853401184082,-1.3282443284988403,-1.2366411685943604,-1.1145038604736328,710.9935302734375,3747.0,1399.2674560546875,187.31707763671875,335.9375
1912156.9004564,2919996.0,-0.07660083472728729,-0.241771399974823,-9.936565399169922,-1.1908396482467651,-1.0229008197784424,-1.3129770755767822,706.1875610351562,3768.0,1400.7325439453125,187.31707763671875,335.9375
1912156.900743,2920004.0,-0.08138839155435562,-0.23698383569717407,-9.95571517944336,-0.6870229244232178,-0.5038167834281921,-1.160305380821228,710.3029174804688,3750.0,1403.6629638671875,187.31707763671875,335.9375
1912156.9139641,2920011.75,-0.07420706003904343,-0.23937761783599854,-10.017952919006348,-0.5038167834281921,-0.732824444770813,-1.6335878372192383,708.4679565429688,3758.0,1411.7215576171875,187.31707763671875,335.9375
1912156.9199929,2920019.5,-0.06463195383548737,-0.241771399974823,-10.017952919006348,-1.0534350872039795,-0.9770992398262024,-1.2977099418640137,707.5540161132812,3762.0,1413.91943359375,187.31707763671875,335.9375
1912156.932622,2920027.25,-0.06702573597431183,-0.241771399974823,-10.022741317749023,-1.2519084215164185,-1.4351145029067993,-1.2977099418640137,711.6854248046875,3744.0,1411.7215576171875,187.31707763671875,335.9375
1912156.9403357,2920035.25,-0.0694195106625557,-0.22262118756771088,-9.938959121704102,-1.389312982559204,-0.7938931584358215,-1.3740458488464355,706.4149169921875,3767.0,1405.86083984375,187.31707763671875,335.9375
1912156.9426743,2920043.0,-0.06463195383548737,-0.23219628632068634,-9.917414665222168,-0.7633587718009949,-0.8702290058135986,-1.2366411685943604,710.532958984375,3749.0,1407.3260498046875,187.31707763671875,335.9375
1912156.9564891,2920050.75,-0.07899461686611176,-0.21783363819122314,-9.931777000427246,-0.06106870248913765,-0.38167938590049744,-1.3740458488464355,710.0730590820312,3751.0,1408.791259765625,187.31707763671875,335.9375
1912156.9568093,2920058.5,-0.033512867987155914,-0.2202274054288864,-9.941352844238281,-0.18320611119270325,-0.42748090624809265,-1.3282443284988403,707.7822875976562,3761.0,1408.791259765625,187.31707763671875,335.9375
1912156.9674736,2920066.5,-0.03111908957362175,-0.23937761783599854,-9.977258682250977,-0.8702290058135986,-0.8549618124961853,-1.389312982559204,711.6854248046875,3744.0,1403.6629638671875,187.31707763671875,335.9375
1912156.9810493,2920074.25,-0.04787552356719971,-0.22980251908302307,-10.017952919006348,-1.0992366075515747,-1.0992366075515747,-1.4198473691940308,706.8701171875,3765.0,1402.19775390625,187.31707763671875,335.9375
1912156.9871218,2920082.0,-0.04308797046542168,-0.24655894935131073,-10.010771751403809,-1.0839694738388062,-1.2061069011688232,-1.4045801162719727,710.3029174804688,3750.0,1405.86083984375,187.31707763671875,335.9375
1912156.9975378,2920089.75,-0.05266307666897774,-0.21543985605239868,-9.95571517944336,-1.1755725145339966,-1.1297709941864014,-1.2213740348815918,711.4546508789062,3745.0,1410.989013671875,187.31707763671875,335.9375
1912156.99789,2920097.75,-0.07420706003904343,-0.2274087369441986,-9.965290069580078,-0.580152690410614,-0.7175572514533997,-1.3282443284988403,707.7822875976562,3761.0,1408.05859375,187.31707763671875,335.9375
1912157.0046583,2920105.5,-0.059844404458999634,-0.2274087369441986,-9.991621971130371,-0.6412213444709778,-0.9465649127960205,-1.2977099418640137,711.9163818359375,3743.0,1403.6629638671875,187.31707763671875,257.8125
1912157.0184785,2920113.25,-0.09575104713439941,-0.23937761783599854,-9.972471237182617,-1.2977099418640137,-1.0076335668563843,-1.3740458488464355,708.2392578125,3759.0,1399.2674560546875,187.31707763671875,257.8125
1912157.0188079,2920121.0,-0.08138839155435562,-0.23698383569717407,-9.982047080993652,-1.3740458488464355,-1.2519084215164185,-1.1908396482467651,710.0730590820312,3751.0,1398.5347900390625,187.31707763671875,257.8125
1912157.0375077,2920129.0,-0.10053859651088715,-0.22501495480537415,-9.936565399169922,-1.4351145029067993,-1.4045801162719727,-1.893129825592041,712.1474609375,3742.0,1394.871826171875,187.31707763671875,257.8125
1912157.0425083,2920136.75,-0.07899461686611176,-0.2274087369441986,-9.967683792114258,-0.290076345205307,-0.25954198837280273,-1.587786316871643,708.0107421875,3760.0,1392.6739501953125,187.31707763671875,257.8125
1912157.0502145,2920144.5,-0.07181328535079956,-0.24416516721248627,-9.936565399169922,0.1221374049782753,-0.18320611119270325,-1.496183156967163,712.6100463867188,3740.0,1389.7435302734375,187.31707763671875,257.8125
1912157.055584,2920152.25,-0.09096349775791168,-0.23937761783599854,-10.010771751403809,0.6259542107582092,0.35114502906799316,-1.3740458488464355,709.8433227539062,3752.0,1389.7435302734375,187.31707763671875,257.8125
1912157.0558271,2920160.25,-0.07181328535079956,-0.2609215974807739,-9.99880313873291,0.39694657921791077,0.09160305559635162,-1.4045801162719727,710.0730590820312,3751.0,1387.5457763671875,187.31707763671875,257.8125
1912157.0677593,2920168.0,-0.0622381791472435,-0.2537402808666229,-9.99640941619873,-0.9618320465087891,-0.8549618124961853,-1.3282443284988403,713.537109375,3736.0,1382.4176025390625,187.31707763671875,257.8125
1912157.0736326,2920175.75,-0.07420706003904343,-0.24655894935131073,-9.974864959716797,-1.3129770755767822,-1.2519084215164185,-1.1755725145339966,708.6968383789062,3757.0,1373.6263427734375,187.31707763671875,257.8125
1912157.0856106,2920183.5,-0.06463195383548737,-0.2274087369441986,-9.929383277893066,-1.7862595319747925,-1.5267175436019897,-1.2366411685943604,713.3051147460938,3737.0,1370.6959228515625,187.31707763671875,257.8125
1912157.0996235,2920191.5,-0.07420706003904343,-0.22262118756771088,-9.970077514648438,-1.4198473691940308,-1.2366411685943604,-1.4503816366195679,711.9163818359375,3743.0,1376.5567626953125,187.31707763671875,257.8125
1912157.1046839,2920199.25,-0.05745062977075577,-0.22262118756771088,-9.967683792114258,-1.0839694738388062,-0.9770992398262024,-1.3435114622116089,710.9935302734375,3747.0,1382.4176025390625,187.31707763671875,257.8125
1912157.1122553,2920207.0,-0.059844404458999634,-0.21783363819122314,-9.99401569366455,-1.0687023401260376,-1.0992366075515747,-1.4351145029067993,715.165283203125,3729.0,1382.4176025390625,187.31707763671875,257.8125
1912157.1125347,2920214.75,-0.08378216624259949,-0.21783363819122314,-10.00119686126709,-1.14503812789917,-1.1908396482467651,-1.3435114622116089,710.3029174804688,3750.0,1382.4176025390625,187.31707763671875,257.8125
1912157.1222943,2920222.75,-0.07899461686611176,-0.2274087369441986,-9.962896347045898,-1.5267175436019897,-1.6335878372192383,-1.3740458488464355,714.2340087890625,3733.0,1386.813232421875,187.31707763671875,257.8125
1912157.1301906,2920230.5,-0.07899461686611176,-0.23937761783599854,-9.979653358459473,-1.465648889541626,-1.465648889541626,-1.587786316871643,714.466552734375,3732.0,1393.4066162109375,187.31707763671875,257.8125
1912157.1491493,2920238.25,-0.06702573597431183,-0.24416516721248627,-9.95571517944336,-1.2366411685943604,-1.1755725145339966,-1.0839694738388062,712.1474609375,3742.0,1391.94140625,187.31707763671875,257.8125
1912157.1497233,2920246.0,-0.07899461686611176,-0.22980251908302307,-9.94853401184082,-0.5190839767456055,-0.4122137427330017,-1.4198473691940308,716.332763671875,3724.0,1386.813232421875,187.31707763671875,257.8125
1912157.1503337,2920254.0,-0.09814482182264328,-0.2274087369441986,-9.974864959716797,0.04580152779817581,-0.3664122223854065,-1.267175555229187,711.9163818359375,3743.0,1387.5457763671875,187.31707763671875,257.8125
1912157.1613765,2920261.75,-0.08138839155435562,-0.2537402808666229,-9.974864959716797,0.04580152779817581,-0.21374045312404633,-1.160305380821228,714.6993408203125,3731.0,1390.4761962890625,187.31707763671875,257.8125
1912157.1963909,2920269.5,-0.07181328535079956,-0.2561340630054474,-9.960502624511719,-0.5038167834281921,-0.7175572514533997,-1.1755725145339966,716.5667724609375,3723.0,1393.4066162109375,187.31707763671875,257.8125
1912157.1984668,2920277.25,-0.08378216624259949,-0.2345900684595108,-9.962896347045898,-0.8396946787834167,-0.7786259651184082,-1.160305380821228,712.8416137695312,3739.0,1393.4066162109375,187.31707763671875,257.8125
1912157.198995,2920285.25,-0.09335727244615555,-0.2274087369441986,-9.960502624511719,-0.5038167834281921,-0.6412213444709778,-1.465648889541626,717.26953125,3720.0,1390.4761962890625,187.31707763671875,257.8125
1912157.199452,2920293.0,-0.08617594093084335,-0.2274087369441986,-9.982047080993652,-0.15267175436019897,-0.39694657921791077,-1.0992366075515747,713.7692260742188,3735.0,1392.6739501953125,187.31707763671875,257.8125
1912157.2056599,2920300.75,-0.08378216624259949,-0.21543985605239868,-9.965290069580078,0.2442748099565506,-0.06106870248913765,-1.4809160232543945,715.165283203125,3729.0,1397.80224609375,187.31707763671875,257.8125
1912157.2094728,2920308.5,-0.07660083472728729,-0.2274087369441986,-9.941352844238281,0.47328245639801025,-0.15267175436019897,-1.2061069011688232,718.2088012695312,3716.0,1397.069580078125,187.31707763671875,257.8125
1912157.2219333,2920316.5,-0.0622381791472435,-0.23698383569717407,-9.974864959716797,0.4122137427330017,0.15267175436019897,-1.1297709941864014,713.3051147460938,3737.0,1396.3370361328125,284.4444580078125,210.9375
1912157.229771,2920324.25,-0.059844404458999634,-0.2537402808666229,-9.99880313873291,0.030534351244568825,-0.07633587718009949,-1.694656491279602,718.2088012695312,3716.0,1399.2674560546875,284.4444580078125,210.9375
1912157.2300901,2920332.0,-0.0622381791472435,-0.25134649872779846,-9.99880313873291,-0.38167938590049744,-0.6106870174407959,-1.2824426889419556,715.8652954101562,3726.0,1405.128173828125,284.4444580078125,210.9375
1912157.2493094,2920339.75,-0.06702573597431183,-0.248952716588974,-10.027528762817383,-0.8091602921485901,-0.9465649127960205,-1.038167953491211,715.3984375,3728.0,1408.05859375,284.4444580078125,210.9375
1912157.2537712,2920347.75,-0.06463195383548737,-0.241771399974823,-9.960502624511719,-1.2366411685943604,-1.2213740348815918,-1.1908396482467651,719.1504516601562,3712.0,1401.4652099609375,284.4444580078125,210.9375
1912157.2612517,2920355.5,-0.07181328535079956,-0.23698383569717407,-9.950927734375,-1.5419846773147583,-1.2366411685943604,-1.3282443284988403,714.2340087890625,3733.0,1391.94140625,284.4444580078125,210.9375
1912157.2679885,2920363.25,-0.059844404458999634,-0.25134649872779846,-9.929383277893066,-1.2977099418640137,-1.2366411685943604,-1.6488549709320068,718.6793212890625,3714.0,1389.010986328125,284.4444580078125,210.9375
1912157.2683093,2920371.0,-0.0694195106625557,-0.23698383569717407,-9.95332145690918,-1.389312982559204,-1.3129770755767822,-1.2061069011688232,717.7388305664062,3718.0,1391.94140625,284.4444580078125,210.9375
1912157.2839909,2920379.0,-0.07899461686611176,-0.22501495480537415,-9.974864959716797,-1.3282443284988403,-1.2519084215164185,-1.465648889541626,715.8652954101562,3726.0,1393.4066162109375,284.4444580078125,210.9375
1912157.2844095,2920386.75,-0.07420706003904343,-0.241771399974823,-10.00119686126709,-1.5114504098892212,-1.2213740348815918,-1.2366411685943604,719.8583374023438,3709.0,1391.208740234375,284.4444580078125,210.9375
1912157.2960434,2920394.5,-0.07899461686611176,-0.23219628632068634,-9.989228248596191,-1.3282443284988403,-1.1908396482467651,-1.267175555229187,715.165283203125,3729.0,1389.010986328125,284.4444580078125,210.9375
1912157.3099855,2920402.25,-0.0694195106625557,-0.22262118756771088,-10.00119686126709,-1.6183205842971802,-1.2366411685943604,-1.5419846773147583,718.4439697265625,3715.0,1394.871826171875,284.4444580078125,210.9375
1912157.3150861,2920410.25,-0.05266307666897774,-0.23937761783599854,-9.977258682250977,-1.1755725145339966,-1.3740458488464355,-1.267175555229187,719.1504516601562,3712.0,1400.0,284.4444580078125,210.9375
1912157.3264243,2920418.0,-0.07660083472728729,-0.23219628632068634,-9.950927734375,-1.1145038604736328,-1.0534350872039795,-1.1297709941864014,715.8652954101562,3726.0,1404.3956298828125,284.4444580078125,210.9375
1912157.3269217,2920425.75,-0.07181328535079956,-0.23219628632068634,-9.943746566772461,-0.732824444770813,-0.7786259651184082,-1.0534350872039795,720.567626953125,3706.0,1402.930419921875,284.4444580078125,210.9375
1912157.3349307,2920433.5,-0.05745062977075577,-0.21783363819122314,-9.94853401184082,-0.290076345205307,-0.3664122223854065,-1.2824426889419556,716.332763671875,3724.0,1405.86083984375,284.4444580078125,210.9375
1912157.3398675,2920441.5,-0.04787552356719971,-0.1938958764076233,-9.979653358459473,-0.13740457594394684,-0.15267175436019897,-1.2824426889419556,718.2088012695312,3716.0,1413.186767578125,284.4444580078125,210.9375
1912157.37635,2920449.25,-0.04308797046542168,-0.23219628632068634,-9.984440803527832,-0.7633587718009949,-0.7786259651184082,-1.4351145029067993,720.8043823242188,3705.0,1413.91943359375,284.4444580078125,210.9375
1912157.3775944,2920457.0,-0.0550568513572216,-0.2274087369441986,-9.982047080993652,-1.2977099418640137,-1.0839694738388062,-1.4351145029067993,716.332763671875,3724.0,1410.2564697265625,284.4444580078125,210.9375
1912157.3793612,2920464.75,-0.0694195106625557,-0.20586475729942322,-9.984440803527832,-1.1755725145339966,-1.0839694738388062,-1.0534350872039795,721.2783203125,3703.0,1406.5933837890625,284.4444580078125,210.9375
1912157.3848472,2920472.75,-0.07899461686611176,-0.20347097516059875,-9.958108901977539,-0.9923664331436157,-1.2213740348815918,-1.4045801162719727,717.504150390625,3719.0,1406.5933837890625,284.4444580078125,210.9375
1912157.3858685,2920480.5,-0.06463195383548737,-0.22980251908302307,-9.965290069580078,-0.5954198241233826,-0.6870229244232178,-1.4198473691940308,718.4439697265625,3715.0,1408.791259765625,284.4444580078125,210.9375
1912157.4013835,2920488.25,-0.06702573597431183,-0.21543985605239868,-9.94614028930664,-0.07633587718009949,-0.09160305559635162,-1.0534350872039795,721.7528686523438,3701.0,1406.5933837890625,284.4444580078125,171.875
1912157.4019829,2920496.0,-0.07660083472728729,-0.23219628632068634,-9.989228248596191,0.19847328960895538,-0.30534350872039795,-1.3435114622116089,716.5667724609375,3723.0,1402.19775390625,284.4444580078125,171.875
1912157.402681,2920504.0,-0.08138839155435562,-0.2345900684595108,-9.972471237182617,-0.2442748099565506,-0.3358778655529022,-1.1755725145339966,720.8043823242188,3705.0,1402.19775390625,284.4444580078125,171.875
1912157.4213149,2920511.75,-0.08617594093084335,-0.25134649872779846,-9.962896347045898,-0.6717557311058044,-0.9160305261611938,-1.572519063949585,718.914794921875,3713.0,1402.930419921875,284.4444580078125,171.875
1912157.4313014,2920519.5,-0.10532615333795547,-0.2561340630054474,-9.94614028930664,-1.2824426889419556,-1.267175555229187,-1.0992366075515747,718.4439697265625,3715.0,1399.2674560546875,284.4444580078125,171.875
1912157.4329315,2920527.25,-0.07420706003904343,-0.23698383569717407,-9.974864959716797,-1.5572519302368164,-1.2824426889419556,-1.4503816366195679,722.22802734375,3699.0,1393.4066162109375,284.4444580078125,171.875
1912157.4409891,2920535.25,-0.11250747740268707,-0.23937761783599854,-9.991621971130371,-1.14503812789917,-1.1297709941864014,-1.4809160232543945,716.8008422851562,3722.0,1388.2784423828125,284.4444580078125,171.875
1912157.4414446,2920543.0,-0.09814482182264328,-0.23937761783599854,-9.967683792114258,-0.8396946787834167,-1.14503812789917,-1.5267175436019897,721.041259765625,3704.0,1387.5457763671875,284.4444580078125,171.875
1912157.466192,2920550.75,-0.08856971561908722,-0.21783363819122314,-9.982047080993652,-0.42748090624809265,-0.5648854970932007,-1.160305380821228,720.567626953125,3706.0,1391.94140625,284.4444580078125,171.875
1912157.4698742,2920558.5,-0.07660083472728729,-0.22980251908302307,-9.977258682250977,-0.06106870248913765,-0.07633587718009949,-1.2977099418640137,718.6793212890625,3714.0,1390.4761962890625,284.4444580078125,171.875
1912157.4715862,2920566.5,-0.04787552356719971,-0.21304607391357422,-9.965290069580078,0.21374045312404633,-0.2748091518878937,-1.0687023401260376,722.9420166015625,3696.0,1389.010986328125,284.4444580078125,171.875
1912157.4812654,2920574.25,-0.05745062977075577,-0.248952716588974,-9.974864959716797,0.030534351244568825,-0.35114502906799316,-1.4045801162719727,718.4439697265625,3715.0,1391.208740234375,284.4444580078125,171.875
1912157.4824281,2920582.0,-0.0622381791472435,-0.2082585245370865,-9.991621971130371,-0.18320611119270325,-0.25954198837280273,-1.2824426889419556,721.5155029296875,3702.0,1397.80224609375,284.4444580078125,171.875
1912157.4946901,2920589.75,-0.04069419577717781,-0.21783363819122314,-9.970077514648438,-0.47328245639801025,-0.4580152630805969,-1.0534350872039795,722.22802734375,3699.0,1404.3956298828125,284.4444580078125,171.875
1912157.496631,2920597.75,-0.0622381791472435,-0.22501495480537415,-10.106523513793945,-0.9007633328437805,-0.8702290058135986,-1.2061069011688232,719.1504516601562,3712.0,1404.3956298828125,284.4444580078125,171.875
1912157.5054494,2920605.5,-0.03111908957362175,-0.21783363819122314,-9.979653358459473,-0.9312977194786072,-0.885496199131012,-1.160305380821228,723.8961791992188,3692.0,1408.05859375,284.4444580078125,171.875
1912157.5210956,2920613.25,-0.0622381791472435,-0.24416516721248627,-9.967683792114258,-0.6717557311058044,-1.0076335668563843,-1.0839694738388062,720.0946044921875,3708.0,1410.989013671875,284.4444580078125,171.875
1912157.5291523,2920621.0,-0.0694195106625557,-0.23698383569717407,-9.94853401184082,-1.0076335668563843,-0.9465649127960205,-1.1755725145339966,721.7528686523438,3701.0,1421.245361328125,284.4444580078125,171.875
1912157.5335849,2920629.0,-0.07181328535079956,-0.23219628632068634,-9.965290069580078,-1.1297709941864014,-0.9618320465087891,-1.3282443284988403,724.3742065429688,3690.0,1424.17578125,284.4444580078125,171.875
1912157.5414413,2920636.75,-0.07181328535079956,-0.2345900684595108,-10.00119686126709,-1.1145038604736328,-1.1297709941864014,-1.2977099418640137,719.6222534179688,3710.0,1421.245361328125,284.4444580078125,171.875
1912157.5515344,2920644.5,-0.09096349775791168,-0.2202274054288864,-10.00119686126709,-0.885496199131012,-0.9618320465087891,-1.5419846773147583,724.6134033203125,3689.0,1416.849853515625,284.4444580078125,171.875
1912157.5573652,2920652.25,-0.07660083472728729,-0.248952716588974,-9.986834526062012,-0.8244274854660034,-0.9312977194786072,-1.4045801162719727,721.5155029296875,3702.0,1411.7215576171875,284.4444580078125,171.875
1912157.5577211,2920660.25,-0.07899461686611176,-0.22262118756771088,-9.989228248596191,-0.6412213444709778,-0.9618320465087891,-1.1908396482467651,721.7528686523438,3701.0,1405.86083984375,284.4444580078125,171.875
1912157.5688377,2920668.0,-0.08138839155435562,-0.23698383569717407,-9.929383277893066,0.030534351244568825,-0.21374045312404633,-1.1755725145339966,725.3320922851562,3686.0,1398.5347900390625,284.4444580078125,171.875
1912157.579998,2920675.75,-0.0694195106625557,-0.23219628632068634,-9.938959121704102,-0.10687022656202316,-0.4885496199131012,-1.2824426889419556,720.3310546875,3707.0,1384.6153564453125,284.4444580078125,171.875
1912157.5908034,2920683.5,-0.06702573597431183,-0.2609215974807739,-9.94853401184082,-1.3282443284988403,-0.9770992398262024,-0.9770992398262024,724.6134033203125,3689.0,1380.2197265625,284.4444580078125,171.875
1912157.5916035,2920691.5,-0.06702573597431183,-0.23937761783599854,-9.972471237182617,-1.694656491279602,-1.465648889541626,-1.2519084215164185,723.1802978515625,3695.0,1378.02197265625,284.4444580078125,171.875
1912157.6024547,2920699.25,-0.0622381791472435,-0.23698383569717407,-9.977258682250977,-1.3740458488464355,-1.3129770755767822,-0.9923664331436157,721.7528686523438,3701.0,1374.3590087890625,284.4444580078125,171.875
1912157.6139854,2920707.0,-0.0694195106625557,-0.2202274054288864,-9.941352844238281,-0.9160305261611938,-0.9160305261611938,-1.3587785959243774,725.81201171875,3684.0,1366.3004150390625,284.4444580078125,171.875
1912157.615932,2920714.75,-0.07899461686611176,-0.20586475729942322,-9.972471237182617,-0.1679389327764511,-0.06106870248913765,-1.4198473691940308,720.567626953125,3706.0,1363.3699951171875,284.4444580078125,171.875
1912157.6212664,2920722.75,-0.05745062977075577,-0.2274087369441986,-9.962896347045898,0.25954198837280273,-0.030534351244568825,-1.389312982559204,724.3742065429688,3690.0,1367.765625,284.4444580078125,171.875
1912157.6315498,2920730.5,-0.0622381791472435,-0.23698383569717407,-9.972471237182617,0.015267175622284412,-0.22900763154029846,-1.3435114622116089,724.8528442382812,3688.0,1375.82421875,284.4444580078125,171.875
1912157.6420839,2920738.25,-0.0622381791472435,-0.23219628632068634,-9.977258682250977,-0.442748099565506,-0.442748099565506,-1.3282443284988403,722.22802734375,3699.0,1373.6263427734375,284.4444580078125,171.875
1912157.6529419,2920746.0,-0.06463195383548737,-0.248952716588974,-10.025135040283203,-0.7175572514533997,-1.0992366075515747,-0.9618320465087891,727.0145874023438,3679.0,1369.96337890625,284.4444580078125,171.875
1912157.653852,2920754.0,-0.0622381791472435,-0.23219628632068634,-10.010771751403809,-0.7786259651184082,-0.8549618124961853,-1.267175555229187,722.4658813476562,3698.0,1367.032958984375,284.4444580078125,171.875
1912157.6696438,2920761.75,-0.0694195106625557,-0.2345900684595108,-9.941352844238281,-1.7404580116271973,-1.465648889541626,-1.1145038604736328,725.5719604492188,3685.0,1369.96337890625,284.4444580078125,171.875
1912157.6717631,2920769.5,-0.09575104713439941,-0.2345900684595108,-9.929383277893066,-1.4045801162719727,-1.6641221046447754,-1.4809160232543945,727.9795532226562,3675.0,1371.4285888671875,284.4444580078125,171.875
1912157.6825752,2920777.25,-0.08378216624259949,-0.23219628632068634,-9.95571517944336,0.015267175622284412,-0.1679389327764511,-1.8320610523223877,724.1350708007812,3691.0,1368.4981689453125,284.4444580078125,171.875
1912157.6929144,2920785.25,-0.07899461686611176,-0.248952716588974,-9.924595832824707,-0.35114502906799316,-0.7022900581359863,-1.4198473691940308,729.1893310546875,3670.0,1362.6373291015625,284.4444580078125,171.875
1912157.6996592,2920793.0,-0.08856971561908722,-0.27289047837257385,-9.958108901977539,-0.3206106722354889,-0.8244274854660034,-1.1297709941864014,725.81201171875,3684.0,1361.90478515625,284.4444580078125,171.875
1912157.7010756,2920800.75,-0.0694195106625557,-0.25134649872779846,-10.00359058380127,-1.465648889541626,-1.1908396482467651,-1.2061069011688232,727.4967651367188,3677.0,1368.4981689453125,284.4444580078125,171.875
1912157.706023,2920808.5,-0.09814482182264328,-0.2345900684595108,-10.020346641540527,-0.9312977194786072,-1.0687023401260376,-1.2977099418640137,730.8897705078125,3663.0,1374.3590087890625,284.4444580078125,171.875
1912157.7243124,2920816.5,-0.08138839155435562,-0.2633153796195984,-10.027528762817383,-0.8549618124961853,-0.6564885377883911,-1.3740458488464355,725.81201171875,3684.0,1377.2894287109375,284.4444580078125,171.875
1912157.7352096,2920824.25,-0.07420706003904343,-0.25134649872779846,-9.991621971130371,-0.8702290058135986,-1.0534350872039795,-1.0229008197784424,730.403076171875,3665.0,1382.4176025390625,284.4444580078125,171.875
1912157.7361149,2920832.0,-0.0622381791472435,-0.23937761783599854,-9.929383277893066,-1.1908396482467651,-1.160305380821228,-1.4198473691940308,728.4629516601562,3673.0,1391.208740234375,284.4444580078125,171.875
1912157.7550427,2920839.75,-0.038300417363643646,-0.22262118756771088,-9.924595832824707,-1.267175555229187,-1.3282443284988403,-1.14503812789917,728.22119140625,3674.0,1396.3370361328125,284.4444580078125,351.5625
1912157.7559847,2920847.75,-0.0550568513572216,-0.21783363819122314,-9.926989555358887,-1.3129770755767822,-1.3740458488464355,-1.3435114622116089,731.864990234375,3659.0,1394.871826171875,284.4444580078125,351.5625
1912157.7568911,2920855.5,-0.04308797046542168,-0.1938958764076233,-9.99640941619873,-0.6717557311058044,-0.6717557311058044,-1.4503816366195679,726.7737426757812,3680.0,1392.6739501953125,284.4444580078125,351.5625
1912157.7736386,2920863.25,-0.07420706003904343,-0.19868342578411102,-10.015559196472168,0.47328245639801025,-0.04580152779817581,-1.4503816366195679,732.1092529296875,3658.0,1392.6739501953125,284.4444580078125,351.5625
1912157.7744243,2920871.0,-0.033512867987155914,-0.2202274054288864,-10.013165473937988,0.6564885377883911,0.4580152630805969,-1.3435114622116089,731.3770751953125,3661.0,1396.3370361328125,284.4444580078125,351.5625
1912157.7903212,2920879.0,-0.03590664267539978,-0.23698383569717407,-9.970077514648438,0.06106870248913765,-0.290076345205307,-1.4045801162719727,729.4317626953125,3669.0,1395.6043701171875,284.4444580078125,351.5625
1912157.7910415,2920886.75,-0.05026929825544357,-0.23937761783599854,-9.94614028930664,-0.5038167834281921,-0.47328245639801025,-1.267175555229187,733.8233642578125,3651.0,1391.208740234375,284.4444580078125,351.5625
1912157.8064543,2920894.5,-0.038300417363643646,-0.23937761783599854,-9.95332145690918,-1.0687023401260376,-1.038167953491211,-1.14503812789917,729.4317626953125,3669.0,1386.813232421875,284.4444580078125,351.5625
1912157.8091243,2920902.25,-0.06463195383548737,-0.2633153796195984,-9.938959121704102,-1.2977099418640137,-1.1908396482467651,-1.267175555229187,732.8428955078125,3655.0,1391.208740234375,284.4444580078125,351.5625
1912157.8255747,2920910.25,-0.09814482182264328,-0.2202274054288864,-9.986834526062012,-1.1145038604736328,-1.0229008197784424,-1.2213740348815918,734.06884765625,3650.0,1393.4066162109375,284.4444580078125,351.5625
1912157.8431288,2920918.0,-0.08617594093084335,-0.241771399974823,-9.974864959716797,-0.2748091518878937,-0.5954198241233826,-1.3435114622116089,730.8897705078125,3663.0,1392.6739501953125,284.4444580078125,351.5625
1912157.8542156,2920925.75,-0.1172950342297554,-0.23698383569717407,-10.013165473937988,0.2748091518878937,0.015267175622284412,-1.1755725145339966,736.0390625,3642.0,1388.2784423828125,284.4444580078125,351.5625
1912157.8552002,2920933.5,-0.09575104713439941,-0.2681029438972473,-10.008378028869629,-0.30534350872039795,-0.3664122223854065,-1.3587785959243774,732.1092529296875,3658.0,1388.2784423828125,284.4444580078125,351.5625
1912157.8568637,2920941.5,-0.11250747740268707,-0.2561340630054474,-9.99401569366455,-0.885496199131012,-1.038167953491211,-1.2824426889419556,734.06884765625,3650.0,1397.069580078125,284.4444580078125,351.5625
1912157.8575598,2920949.25,-0.08378216624259949,-0.25852781534194946,-9.960502624511719,-1.2061069011688232,-1.496183156967163,-1.0534350872039795,737.028076171875,3638.0,1402.930419921875,284.4444580078125,351.5625
1912157.8894947,2920957.0,-0.08138839155435562,-0.2345900684595108,-9.970077514648438,-0.6259542107582092,-0.5954198241233826,-1.4809160232543945,732.3536376953125,3657.0,1405.128173828125,284.4444580078125,351.5625
1912157.8902873,2920964.75,-0.09096349775791168,-0.23219628632068634,-9.95571517944336,-0.19847328960895538,-0.3358778655529022,-1.2213740348815918,737.5236206054688,3636.0,1402.19775390625,284.4444580078125,351.5625
1912157.8907395,2920972.75,-0.07899461686611176,-0.23698383569717407,-9.958108901977539,0.3664122223854065,0.04580152779817581,-1.465648889541626,734.06884765625,3650.0,1399.2674560546875,284.4444580078125,351.5625
1912157.8914091,2920980.5,-0.0550568513572216,-0.24416516721248627,-9.99401569366455,-0.3664122223854065,-0.3358778655529022,-1.0229008197784424,734.8064575195312,3647.0,1398.5347900390625,284.4444580078125,351.5625
1912157.8919528,2920988.25,-0.033512867987155914,-0.248952716588974,-9.967683792114258,-1.0229008197784424,-1.1297709941864014,-1.2366411685943604,738.7653198242188,3631.0,1394.871826171875,284.4444580078125,351.5625
1912157.9182976,2920996.0,-0.007181328721344471,-0.23698383569717407,-9.982047080993652,-1.4198473691940308,-1.3587785959243774,-1.4503816366195679,733.5780029296875,3652.0,1391.208740234375,284.4444580078125,351.5625
1912157.9229826,2921004.0,-0.05266307666897774,-0.22980251908302307,-9.962896347045898,-1.3129770755767822,-1.3282443284988403,-1.2213740348815918,738.5166625976562,3632.0,1389.7435302734375,284.4444580078125,351.5625
1912157.923557,2921011.75,-0.07899461686611176,-0.22262118756771088,-9.979653358459473,-1.4809160232543945,-1.2824426889419556,-1.5267175436019897,736.533203125,3640.0,1394.871826171875,284.4444580078125,351.5625
1912157.9240374,2921019.5,-0.04308797046542168,-0.2345900684595108,-9.984440803527832,-1.3282443284988403,-1.2519084215164185,-1.14503812789917,736.0390625,3642.0,1397.80224609375,284.4444580078125,351.5625
1912157.9295526,2921027.25,-0.07181328535079956,-0.23219628632068634,-9.989228248596191,-1.1908396482467651,-1.0992366075515747,-1.2977099418640137,740.2609252929688,3625.0,1394.871826171875,284.4444580078125,351.5625
1912157.9484323,2921035.25,-0.06702573597431183,-0.23698383569717407,-9.965290069580078,-0.9007633328437805,-1.0839694738388062,-1.160305380821228,734.5604248046875,3648.0,1390.4761962890625,284.4444580078125,351.5625
1912157.9496853,2921043.0,-0.08378216624259949,-0.2561340630054474,-9.99401569366455,-0.7938931584358215,-1.2213740348815918,-1.2366411685943604,739.01416015625,3630.0,1393.4066162109375,284.4444580078125,351.5625
1912157.9586312,2921050.75,-0.10293237864971161,-0.241771399974823,-10.008378028869629,-0.5343511700630188,-0.4885496199131012,-1.5114504098892212,739.26318359375,3629.0,1394.13916015625,284.4444580078125,351.5625
1912157.9590908,2921058.5,-0.0694195106625557,-0.24416516721248627,-9.972471237182617,-0.5190839767456055,-0.8702290058135986,-1.267175555229187,736.7805786132812,3639.0,1391.94140625,284.4444580078125,351.5625
1912157.9662298,2921066.5,-0.10053859651088715,-0.2537402808666229,-9.984440803527832,-0.5648854970932007,-0.6259542107582092,-1.4045801162719727,741.2613525390625,3621.0,1383.8828125,284.4444580078125,351.5625
1912157.9912007,2921074.25,-0.0694195106625557,-0.25852781534194946,-9.95571517944336,-0.5038167834281921,-1.0992366075515747,-1.3282443284988403,736.2860717773438,3641.0,1380.2197265625,284.4444580078125,351.5625
1912157.9919904,2921082.0,-0.07899461686611176,-0.22980251908302307,-9.934170722961426,-0.7633587718009949,-1.1908396482467651,-1.7099236249923706,740.01123046875,3626.0,1381.6849365234375,284.4444580078125,351.5625
1912157.9924922,2921089.75,-0.09096349775791168,-0.2345900684595108,-9.958108901977539,-0.9465649127960205,-0.9312977194786072,-1.0687023401260376,741.7626342773438,3619.0,1386.08056640625,284.4444580078125,351.5625
1912157.9992227,2921097.75,-0.07660083472728729,-0.248952716588974,-9.972471237182617,-1.389312982559204,-1.2061069011688232,-1.4351145029067993,737.5236206054688,3636.0,1385.3480224609375,284.4444580078125,351.5625
1912158.0084128,2921105.5,-0.07420706003904343,-0.23219628632068634,-10.010771751403809,-0.9160305261611938,-0.8244274854660034,-1.3435114622116089,742.2645263671875,3617.0,1383.8828125,284.4444580078125,265.625
1912158.0196812,2921113.25,-0.0622381791472435,-0.22262118756771088,-9.99401569366455,-0.7938931584358215,-0.7938931584358215,-1.5114504098892212,739.01416015625,3630.0,1381.6849365234375,284.4444580078125,265.625
1912158.0246003,2921121.0,-0.0622381791472435,-0.20586475729942322,-9.986834526062012,-0.5496183037757874,-0.9312977194786072,-1.5419846773147583,740.7608032226562,3623.0,1382.4176025390625,284.4444580078125,265.625
1912158.0291838,2921129.0,-0.04308797046542168,-0.23219628632068634,-9.965290069580078,-0.8244274854660034,-1.1145038604736328,-1.2366411685943604,743.5222778320312,3612.0,1378.754638671875,284.4444580078125,265.625
1912158.0359939,2921136.75,-0.06463195383548737,-0.21543985605239868,-9.936565399169922,-0.7633587718009949,-1.0229008197784424,-1.2061069011688232,738.5166625976562,3632.0,1371.4285888671875,284.4444580078125,265.625
1912158.0495351,2921144.5,-0.05745062977075577,-0.2202274054288864,-9.960502624511719,-0.7633587718009949,-0.8396946787834167,-1.4045801162719727,743.7743530273438,3611.0,1367.765625,284.4444580078125,265.625
1912158.0721425,2921152.25,-0.08138839155435562,-0.2202274054288864,-9.958108901977539,-0.39694657921791077,-0.4122137427330017,-1.6183205842971802,741.2613525390625,3621.0,1373.6263427734375,284.4444580078125,265.625
1912158.0763206,2921160.25,-0.0550568513572216,-0.2202274054288864,-9.938959121704102,-0.5496183037757874,-0.3358778655529022,-1.3435114622116089,741.2613525390625,3621.0,1380.952392578125,284.4444580078125,265.625
1912158.0890428,2921168.0,-0.05026929825544357,-0.2345900684595108,-9.970077514648438,-0.7938931584358215,-0.8396946787834167,-1.1755725145339966,744.7843017578125,3607.0,1383.8828125,284.4444580078125,265.625
1912158.0903223,2921175.75,-0.07899461686611176,-0.24416516721248627,-9.986834526062012,-0.885496199131012,-0.8702290058135986,-1.2519084215164185,739.76171875,3627.0,1380.952392578125,284.4444580078125,265.625
1912158.0914192,2921183.5,-0.07899461686611176,-0.248952716588974,-10.00119686126709,-0.8091602921485901,-0.885496199131012,-1.3587785959243774,744.7843017578125,3607.0,1383.150146484375,284.4444580078125,265.625
1912158.104556,2921191.5,-0.10053859651088715,-0.2561340630054474,-9.982047080993652,-0.7938931584358215,-0.6717557311058044,-1.465648889541626,743.5222778320312,3612.0,1389.010986328125,284.4444580078125,265.625
1912158.1056346,2921199.25,-0.08617594093084335,-0.2561340630054474,-9.95332145690918,-0.8244274854660034,-0.6106870174407959,-1.267175555229187,741.7626342773438,3619.0,1391.208740234375,284.4444580078125,265.625
1912158.1175813,2921207.0,-0.09335727244615555,-0.2609215974807739,-9.938959121704102,-0.7480915784835815,-1.0992366075515747,-1.4503816366195679,746.558349609375,3600.0,1389.010986328125,284.4444580078125,265.625
1912158.1197028,2921214.75,-0.09575104713439941,-0.23937761783599854,-9.936565399169922,-1.1908396482467651,-0.9312977194786072,-1.9847328662872314,741.2613525390625,3621.0,1386.08056640625,284.4444580078125,265.625
1912158.1253317,2921222.75,-0.07899461686611176,-0.23698383569717407,-9.99640941619873,-1.4503816366195679,-1.1145038604736328,-1.7099236249923706,745.2903442382812,3605.0,1391.94140625,284.4444580078125,265.625
1912158.1384553,2921230.5,-0.06463195383548737,-0.22980251908302307,-9.99640941619873,-1.4503816366195679,-1.2213740348815918,-1.6488549709320068,745.7969970703125,3603.0,1397.80224609375,284.4444580078125,265.625
1912158.1395937,2921238.25,-0.09335727244615555,-0.23698383569717407,-9.972471237182617,-1.4503816366195679,-1.267175555229187,-2.030534267425537,742.5157470703125,3616.0,1397.80224609375,284.4444580078125,265.625
1912158.150151,2921246.0,-0.04548174887895584,-0.21783363819122314,-9.99401569366455,-1.3435114622116089,-1.0992366075515747,-2.030534267425537,747.3212890625,3597.0,1390.4761962890625,284.4444580078125,265.625
1912158.1537289,2921254.0,-0.05266307666897774,-0.2345900684595108,-9.982047080993652,-0.9923664331436157,-0.9465649127960205,-1.496183156967163,743.0186767578125,3614.0,1384.6153564453125,284.4444580078125,265.625
1912158.1716907,2921261.75,-0.0550568513572216,-0.23937761783599854,-9.94853401184082,-0.8091602921485901,-1.1145038604736328,-1.2213740348815918,745.5435791015625,3604.0,1388.2784423828125,284.4444580078125,265.625
1912158.1728796,2921269.5,-0.04069419577717781,-0.2202274054288864,-9.950927734375,-1.0229008197784424,-0.8244274854660034,-1.2977099418640137,747.8307495117188,3595.0,1387.5457763671875,284.4444580078125,265.625
1912158.1749703,2921277.25,-0.05266307666897774,-0.2274087369441986,-9.94853401184082,-1.1755725145339966,-1.0687023401260376,-1.160305380821228,743.2703857421875,3613.0,1386.813232421875,284.4444580078125,265.625
1912158.1890147,2921285.25,-0.059844404458999634,-0.2202274054288864,-9.989228248596191,-1.465648889541626,-1.2366411685943604,-0.9923664331436157,748.5962524414062,3592.0,1386.08056640625,284.4444580078125,265.625
1912158.1929222,2921293.0,-0.0622381791472435,-0.2274087369441986,-9.974864959716797,-1.160305380821228,-1.1755725145339966,-1.1297709941864014,744.5315551757812,3608.0,1392.6739501953125,284.4444580078125,265.625
1912158.2062624,2921300.75,-0.0694195106625557,-0.2274087369441986,-9.970077514648438,-0.8244274854660034,-0.7175572514533997,-1.1755725145339966,746.0506591796875,3602.0,1402.19775390625,284.4444580078125,265.625
1912158.2098681,2921308.5,-0.09814482182264328,-0.2274087369441986,-10.020346641540527,-1.0076335668563843,-0.7938931584358215,-1.3435114622116089,749.107421875,3590.0,1407.3260498046875,284.4444580078125,265.625
1912158.2214945,2921316.5,-0.07420706003904343,-0.23698383569717407,-9.962896347045898,-0.7938931584358215,-1.2213740348815918,-1.4809160232543945,744.5315551757812,3608.0,1406.5933837890625,284.4444580078125,265.625
1912158.2300931,2921324.25,-0.07899461686611176,-0.22980251908302307,-9.965290069580078,-1.14503812789917,-1.1755725145339966,-1.801526665687561,749.107421875,3590.0,1408.05859375,284.4444580078125,265.625
1912158.2310812,2921332.0,-0.08617594093084335,-0.23937761783599854,-9.965290069580078,-0.5648854970932007,-0.580152690410614,-1.6488549709320068,747.575927734375,3596.0,1411.7215576171875,284.4444580078125,265.625
1912158.2387976,2921339.75,-0.08378216624259949,-0.22262118756771088,-9.967683792114258,-0.5496183037757874,-0.732824444770813,-1.8625954389572144,746.8125,3599.0,1411.7215576171875,284.4444580078125,265.625
1912158.2448311,2921347.75,-0.09814482182264328,-0.241771399974823,-10.00119686126709,-0.7175572514533997,-0.8549618124961853,-1.6793893575668335,750.9021606445312,3583.0,1406.5933837890625,284.4444580078125,265.625
1912158.254838,2921355.5,-0.05745062977075577,-0.2274087369441986,-9.977258682250977,-0.6412213444709778,-0.9618320465087891,-1.5267175436019897,745.0372314453125,3606.0,1397.069580078125,284.4444580078125,265.625
1912158.2717335,2921363.25,-0.0694195106625557,-0.22501495480537415,-9.982047080993652,-1.2061069011688232,-1.160305380821228,-1.3129770755767822,750.1319580078125,3586.0,1392.6739501953125,284.4444580078125,265.625
1912158.2776934,2921371.0,-0.08856971561908722,-0.2345900684595108,-9.982047080993652,-1.2061069011688232,-1.0534350872039795,-1.160305380821228,749.6193237304688,3588.0,1389.7435302734375,284.4444580078125,265.625
1912158.2855187,2921379.0,-0.0622381791472435,-0.23219628632068634,-9.924595832824707,-0.7786259651184082,-0.9770992398262024,-1.3740458488464355,747.575927734375,3596.0,1385.3480224609375,284.4444580078125,265.625
1912158.2860132,2921386.75,-0.06463195383548737,-0.21065230667591095,-9.979653358459473,-0.9160305261611938,-0.6870229244232178,-1.6641221046447754,751.9315795898438,3579.0,1378.754638671875,284.4444580078125,265.625
1912158.2951513,2921394.5,-0.059844404458999634,-0.2202274054288864,-9.974864959716797,-0.7022900581359863,-0.6717557311058044,-1.5114504098892212,746.558349609375,3600.0,1375.091552734375,284.4444580078125,265.625
1912158.3096908,2921402.25,-0.059844404458999634,-0.2202274054288864,-9.974864959716797,-0.5343511700630188,-0.5038167834281921,-1.4045801162719727,750.645263671875,3584.0,1378.754638671875,284.4444580078125,265.625
1912158.3120246,2921410.25,-0.07420706003904343,-0.20586475729942322,-9.989228248596191,-0.47328245639801025,-0.9312977194786072,-1.2366411685943604,752.1893920898438,3578.0,1383.150146484375,284.4444580078125,265.625
1912158.3255421,2921418.0,-0.0694195106625557,-0.22980251908302307,-9.950927734375,-0.8396946787834167,-0.6259542107582092,-1.2824426889419556,747.8307495117188,3595.0,1383.8828125,284.4444580078125,265.625
1912158.3263329,2921425.75,-0.06702573597431183,-0.22262118756771088,-9.958108901977539,-0.4885496199131012,-0.6564885377883911,-1.3129770755767822,753.4810180664062,3573.0,1381.6849365234375,284.4444580078125,265.625
1912158.33199,2921433.5,-0.059844404458999634,-0.2202274054288864,-9.95571517944336,-0.3206106722354889,-0.580152690410614,-1.4351145029067993,749.107421875,3590.0,1383.150146484375,284.4444580078125,265.625
1912158.3399735,2921441.5,-0.08856971561908722,-0.20586475729942322,-9.950927734375,0.04580152779817581,-0.15267175436019897,-1.14503812789917,751.41650390625,3581.0,1388.2784423828125,284.4444580078125,265.625
1912158.3489459,2921449.25,-0.06702573597431183,-0.23698383569717407,-9.99401569366455,0.04580152779817581,-0.15267175436019897,-1.4503816366195679,753.9989624023438,3571.0,1391.94140625,284.4444580078125,265.625
1912158.3602424,2921457.0,-0.06702573597431183,-0.2537402808666229,-9.974864959716797,0.13740457594394684,-0.3358778655529022,-0.8396946787834167,749.6193237304688,3588.0,1396.3370361328125,284.4444580078125,265.625
1912158.3662003,2921464.75,-0.08617594093084335,-0.25134649872779846,-9.95571517944336,-0.7633587718009949,-0.9465649127960205,-0.9770992398262024,754.7771606445312,3568.0,1400.7325439453125,284.4444580078125,265.625
1912158.3762779,2921472.75,-0.07660083472728729,-0.24416516721248627,-9.970077514648438,-1.3435114622116089,-1.160305380821228,-1.14503812789917,751.6739501953125,3580.0,1410.989013671875,284.4444580078125,265.625
1912158.3892119,2921480.5,-0.09575104713439941,-0.241771399974823,-9.958108901977539,-1.6488549709320068,-1.3282443284988403,-1.1145038604736328,751.6739501953125,3580.0,1422.7105712890625,284.4444580078125,265.625
1912158.3951855,2921488.25,-0.09335727244615555,-0.21783363819122314,-9.972471237182617,-0.9160305261611938,-0.8702290058135986,-1.4045801162719727,755.5569458007812,3565.0,1427.8388671875,284.4444580078125,265.625
1912158.4010906,2921496.0,-0.08856971561908722,-0.2274087369441986,-9.95571517944336,-0.3358778655529022,-0.4580152630805969,-1.389312982559204,749.6193237304688,3588.0,1424.17578125,284.4444580078125,265.625
1912158.4013932,2921504.0,-0.07899461686611176,-0.23937761783599854,-9.962896347045898,-0.47328245639801025,-0.38167938590049744,-1.572519063949585,755.2968139648438,3566.0,1421.245361328125,284.4444580078125,265.625
1912158.4152277,2921511.75,-0.08138839155435562,-0.2274087369441986,-9.982047080993652,-0.7786259651184082,-0.6106870174407959,-2.0152671337127686,753.2223510742188,3574.0,1424.17578125,284.4444580078125,265.625
1912158.4222337,2921519.5,-0.028725314885377884,-0.2202274054288864,-9.99401569366455,-0.6259542107582092,-0.4122137427330017,-1.3435114622116089,751.9315795898438,3579.0,1421.245361328125,284.4444580078125,265.625
1912158.4281348,2921527.25,-0.04787552356719971,-0.25134649872779846,-9.989228248596191,-0.9923664331436157,-1.267175555229187,-1.389312982559204,755.8171997070312,3564.0,1415.3846435546875,284.4444580078125,265.625
1912158.4400266,2921535.25,-0.05266307666897774,-0.21304607391357422,-9.967683792114258,-0.8244274854660034,-0.9465649127960205,-1.160305380821228,749.6193237304688,3588.0,1405.86083984375,284.4444580078125,265.625
1912158.4404435,2921543.0,-0.07899461686611176,-0.2274087369441986,-9.991621971130371,-0.9312977194786072,-0.9770992398262024,-1.2061069011688232,753.7399291992188,3572.0,1399.2674560546875,284.4444580078125,265.625
1912158.4773157,2921550.75,-0.07420706003904343,-0.22262118756771088,-9.958108901977539,-1.0076335668563843,-1.0229008197784424,-1.496183156967163,753.7399291992188,3572.0,1391.94140625,284.4444580078125,265.625
1912158.4777785,2921558.5,-0.08138839155435562,-0.2202274054288864,-9.99640941619873,-0.38167938590049744,-0.7022900581359863,-1.2061069011688232,750.3884887695312,3585.0,1383.8828125,284.4444580078125,265.625
1912158.4820246,2921566.5,-0.09335727244615555,-0.2345900684595108,-9.94614028930664,-0.3664122223854065,-0.35114502906799316,-1.2519084215164185,754.7771606445312,3568.0,1376.5567626953125,284.4444580078125,265.625
1912158.482296,2921574.25,-0.08856971561908722,-0.23698383569717407,-9.941352844238281,-0.7480915784835815,-0.6870229244232178,-1.2213740348815918,749.36328125,3589.0,1373.6263427734375,284.4444580078125,265.625
1912158.4850664,2921582.0,-0.09575104713439941,-0.22262118756771088,-9.986834526062012,-0.25954198837280273,-0.38167938590049744,-1.3129770755767822,752.4473876953125,3577.0,1381.6849365234375,284.4444580078125,265.625
1912158.4973331,2921589.75,-0.09096349775791168,-0.22262118756771088,-9.974864959716797,-0.3206106722354889,-0.42748090624809265,-1.3587785959243774,754.2581787109375,3570.0,1388.2784423828125,284.4444580078125,265.625
1912158.499314,2921597.75,-0.09096349775791168,-0.2681029438972473,-9.986834526062012,-0.5496183037757874,-0.732824444770813,-1.2824426889419556,749.8755493164062,3587.0,1389.7435302734375,284.4444580078125,265.625
1912158.5083735,2921605.5,-0.08617594093084335,-0.2537402808666229,-9.943746566772461,-0.6412213444709778,-0.9007633328437805,-1.267175555229187,754.517578125,3569.0,1387.5457763671875,284.4444580078125,265.625
1912158.5203289,2921613.25,-0.09575104713439941,-0.22980251908302307,-9.989228248596191,-0.5343511700630188,-0.42748090624809265,-1.2824426889419556,750.9021606445312,3583.0,1385.3480224609375,284.4444580078125,265.625
1912158.5294426,2921621.0,-0.08617594093084335,-0.23219628632068634,-9.934170722961426,-0.5496183037757874,-0.5954198241233826,-1.496183156967163,752.4473876953125,3577.0,1388.2784423828125,284.4444580078125,515.625
1912158.5354565,2921629.0,-0.0694195106625557,-0.22501495480537415,-9.99640941619873,0.21374045312404633,0.290076345205307,-1.3282443284988403,755.8171997070312,3564.0,1386.813232421875,284.4444580078125,515.625
1912158.5432423,2921636.75,-0.08378216624259949,-0.2345900684595108,-9.991621971130371,0.885496199131012,0.5648854970932007,-1.3282443284988403,750.1319580078125,3586.0,1383.150146484375,284.4444580078125,515.625
1912158.5493569,2921644.5,-0.04548174887895584,-0.23698383569717407,-9.962896347045898,0.07633587718009949,-0.3206106722354889,-1.2366411685943604,756.0776977539062,3563.0,1379.4871826171875,284.4444580078125,515.625
1912158.5594007,2921652.25,-0.04787552356719971,-0.23937761783599854,-9.958108901977539,-0.580152690410614,-0.580152690410614,-1.2519084215164185,753.7399291992188,3572.0,1379.4871826171875,284.4444580078125,515.625
1912158.5596913,2921660.25,-0.08617594093084335,-0.2202274054288864,-9.986834526062012,-0.030534351244568825,-0.5190839767456055,-1.4198473691940308,753.4810180664062,3573.0,1383.150146484375,284.4444580078125,515.625
1912158.5665404,2921668.0,-0.0550568513572216,-0.22980251908302307,-9.977258682250977,0.030534351244568825,-0.5954198241233826,-1.2366411685943604,757.644287109375,3557.0,1383.8828125,284.4444580078125,515.625
1912158.5743683,2921675.75,-0.02633153833448887,-0.24416516721248627,-9.970077514648438,-0.5343511700630188,-0.5648854970932007,-1.4198473691940308,752.4473876953125,3577.0,1380.2197265625,284.4444580078125,515.625
1912158.5863774,2921683.5,-0.02633153833448887,-0.2274087369441986,-9.974864959716797,-0.6259542107582092,-0.9007633328437805,-1.0839694738388062,757.644287109375,3557.0,1379.4871826171875,284.4444580078125,515.625
1912158.5970407,2921691.5,-0.05266307666897774,-0.23698383569717407,-9.967683792114258,-0.38167938590049744,-0.5343511700630188,-1.267175555229187,756.8601684570312,3560.0,1384.6153564453125,284.4444580078125,515.625
1912158.6030028,2921699.25,-0.05266307666897774,-0.23219628632068634,-9.99401569366455,-0.30534350872039795,-0.3664122223854065,-1.3435114622116089,754.7771606445312,3568.0,1388.2784423828125,284.4444580078125,515.625
1912158.6110126,2921707.0,-0.05026929825544357,-0.23937761783599854,-9.982047080993652,0.04580152779817581,-0.39694657921791077,-1.3740458488464355,759.7432250976562,3549.0,1389.7435302734375,284.4444580078125,515.625
1912158.6159824,2921714.75,-0.06463195383548737,-0.23937761783599854,-9.967683792114258,-0.30534350872039795,-0.35114502906799316,-1.3740458488464355,754.2581787109375,3570.0,1391.94140625,284.4444580078125,515.625
1912158.6295433,2921722.75,-0.08138839155435562,-0.241771399974823,-9.931777000427246,-0.06106870248913765,-0.47328245639801025,-1.2366411685943604,758.1679077148438,3555.0,1399.2674560546875,284.4444580078125,515.625
1912158.6299321,2921730.5,-0.08617594093084335,-0.22980251908302307,-9.94853401184082,-0.42748090624809265,-0.5343511700630188,-1.4809160232543945,758.4300537109375,3554.0,1403.6629638671875,284.4444580078125,515.625
1912158.6423227,2921738.25,-0.10532615333795547,-0.25134649872779846,-9.816876411437988,-0.25954198837280273,-0.5496183037757874,-1.496183156967163,754.7771606445312,3568.0,1400.0,284.4444580078125,515.625
1912158.6534498,2921746.0,-0.09335727244615555,-0.2681029438972473,-9.938959121704102,-1.4809160232543945,-1.4503816366195679,-1.9236640930175781,759.7432250976562,3549.0,1395.6043701171875,284.4444580078125,515.625
1912158.6538607,2921754.0,-0.08617594093084335,-0.241771399974823,-10.008378028869629,-1.7862595319747925,-1.7099236249923706,-2.1984732151031494,754.7771606445312,3568.0,1396.3370361328125,284.4444580078125,515.625
1912158.6617876,2921761.75,-0.05266307666897774,-0.248952716588974,-9.986834526062012,-1.4198473691940308,-1.2977099418640137,-1.465648889541626,756.8601684570312,3560.0,1402.19775390625,284.4444580078125,515.625
1912158.6684389,2921769.5,-0.08378216624259949,-0.23937761783599854,-9.984440803527832,-0.5954198241233826,-0.6564885377883911,-1.4045801162719727,759.480224609375,3550.0,1403.6629638671875,284.4444580078125,515.625
1912158.6784576,2921777.25,-0.07899461686611176,-0.23698383569717407,-9.979653358459473,-0.030534351244568825,-0.3206106722354889,-1.2824426889419556,754.2581787109375,3570.0,1397.80224609375,284.4444580078125,515.625
1912158.6942041,2921785.25,-0.0550568513572216,-0.24416516721248627,-9.95571517944336,-0.35114502906799316,-0.39694657921791077,-1.4503816366195679,759.2174072265625,3551.0,1393.4066162109375,284.4444580078125,515.625
1912158.7022163,2921793.0,-0.03111908957362175,-0.25134649872779846,-9.960502624511719,-0.7938931584358215,-0.6412213444709778,-1.4198473691940308,755.2968139648438,3566.0,1394.871826171875,284.4444580078125,515.625
1912158.7091664,2921800.75,-0.04548174887895584,-0.2274087369441986,-9.95332145690918,-0.8244274854660034,-1.0229008197784424,-1.2824426889419556,756.3383178710938,3562.0,1400.0,284.4444580078125,515.625
1912158.7094991,2921808.5,-0.05026929825544357,-0.21543985605239868,-9.95571517944336,-0.6717557311058044,-1.0687023401260376,-1.0839694738388062,760.0064086914062,3548.0,1400.7325439453125,284.4444580078125,515.625
1912158.7161587,2921816.5,-0.06463195383548737,-0.24416516721248627,-9.977258682250977,-0.7786259651184082,-0.9312977194786072,-1.389312982559204,754.2581787109375,3570.0,1397.069580078125,284.4444580078125,515.625
1912158.7310977,2921824.25,-0.0550568513572216,-0.23219628632068634,-9.926989555358887,-1.0687023401260376,-1.160305380821228,-1.1908396482467651,759.7432250976562,3549.0,1394.13916015625,284.4444580078125,515.625
1912158.732184,2921832.0,-0.04787552356719971,-0.22262118756771088,-9.982047080993652,-1.0687023401260376,-1.0687023401260376,-1.3282443284988403,759.2174072265625,3551.0,1397.80224609375,284.4444580078125,515.625
1912158.7441563,2921839.75,-0.06463195383548737,-0.24416516721248627,-10.00119686126709,-0.7938931584358215,-0.7938931584358215,-1.2366411685943604,758.9547729492188,3552.0,1402.930419921875,284.4444580078125,515.625
1912158.7447591,2921847.75,-0.06702573597431183,-0.26570916175842285,-9.989228248596191,-0.9007633328437805,-0.8702290058135986,-0.9618320465087891,764.7750854492188,3530.0,1402.19775390625,284.4444580078125,515.625
1912158.7567992,2921855.5,-0.07420706003904343,-0.24655894935131073,-9.984440803527832,-1.5419846773147583,-1.3587785959243774,-1.2213740348815918,760.7970581054688,3545.0,1399.2674560546875,284.4444580078125,515.625
1912158.7687477,2921863.25,-0.08378216624259949,-0.2561340630054474,-9.970077514648438,-1.389312982559204,-1.1297709941864014,-1.0076335668563843,769.8740234375,3511.0,1398.5347900390625,284.4444580078125,515.625
1912158.7747216,2921871.0,-0.07420706003904343,-0.2561340630054474,-9.943746566772461,-1.7557251453399658,-1.6030534505844116,-1.2366411685943604,776.9627685546875,3485.0,1397.80224609375,284.4444580078125,515.625
1912158.7828459,2921879.0,-0.08138839155435562,-0.2561340630054474,-10.00598430633545,-1.9847328662872314,-1.9694656133651733,-1.3435114622116089,782.22607421875,3466.0,1396.3370361328125,284.4444580078125,515.625
1912158.7886822,2921886.75,-0.06463195383548737,-0.19150209426879883,-10.09455394744873,1.6641221046447754,1.0992366075515747,1.587786316871643,796.7130737304688,3415.0,1391.94140625,284.4444580078125,515.625
1912158.7973128,2921894.5,-0.1867145448923111,-0.2537402808666229,-9.95332145690918,-0.6106870174407959,-0.6717557311058044,-2.351145029067993,804.0123291015625,3390.0,1386.813232421875,284.4444580078125,515.625
1912158.8128264,2921902.25,0.05026929825544357,-0.3183722198009491,-9.826451301574707,-10.809160232543945,-8.29007625579834,-2.106870174407959,819.6315307617188,3338.0,1386.08056640625,284.4444580078125,515.625
1912158.8130539,2921910.25,-0.03111908957362175,-0.29443445801734924,-9.881507873535156,-10.274808883666992,-15.435114860534668,-2.534351110458374,832.3812255859375,3297.0,1385.3480224609375,284.4444580078125,515.625
1912158.8225733,2921918.0,-0.3111909031867981,-0.23698383569717407,-9.888689041137695,-1.801526665687561,-4.106870174407959,-1.4198473691940308,837.1453857421875,3282.0,1386.08056640625,284.4444580078125,515.625
1912158.8332482,2921925.75,-0.24416516721248627,-0.1316576898097992,-10.10173511505127,1.2061069011688232,4.381679534912109,-1.2977099418640137,851.7709350585938,3237.0,1389.010986328125,284.4444580078125,515.625
1912158.8338745,2921933.5,-0.0694195106625557,-0.2082585245370865,-9.919808387756348,1.0839694738388062,4.106870174407959,-1.160305380821228,852.1017456054688,3236.0,1395.6043701171875,284.4444580078125,515.625
1912158.8435311,2921941.5,-0.04308797046542168,-0.2202274054288864,-9.960502624511719,-0.3206106722354889,0.7938931584358215,-1.4351145029067993,860.119140625,3212.0,1399.2674560546875,284.4444580078125,515.625
1912158.8484877,2921949.25,0.002393776085227728,-0.2345900684595108,-9.94853401184082,-1.160305380821228,-1.5267175436019897,-1.3587785959243774,868.6326904296875,3187.0,1397.069580078125,284.4444580078125,515.625
1912158.8634511,2921957.0,-0.05026929825544357,-0.23219628632068634,-9.984440803527832,-1.0687023401260376,-0.7480915784835815,-1.267175555229187,864.8660888671875,3198.0,1391.208740234375,284.4444580078125,515.625
1912158.8637222,2921964.75,-0.0622381791472435,-0.2345900684595108,-9.99880313873291,-0.4580152630805969,-0.5343511700630188,-1.0992366075515747,874.518798828125,3170.0,1390.4761962890625,284.4444580078125,515.625
1912158.8714176,2921972.75,-0.0694195106625557,-0.23937761783599854,-9.991621971130371,-0.5496183037757874,-0.35114502906799316,-1.465648889541626,874.1703491210938,3171.0,1394.871826171875,284.4444580078125,515.625
1912158.8795259,2921980.5,-0.1101137027144432,-0.22980251908302307,-9.99880313873291,-0.4885496199131012,-0.6259542107582092,-1.1908396482467651,881.5465698242188,3150.0,1400.7325439453125,284.4444580078125,515.625
1912158.8894711,2921988.25,-0.11490125954151154,-0.21783363819122314,-9.967683792114258,-0.7480915784835815,-1.2213740348815918,-1.389312982559204,895.946533203125,3110.0,1397.80224609375,284.4444580078125,515.625
1912158.9013427,2921996.0,-0.08856971561908722,-0.22501495480537415,-9.960502624511719,-0.015267175622284412,-0.25954198837280273,-1.2061069011688232,901.4685668945312,3095.0,1394.13916015625,284.4444580078125,515.625
1912158.9016115,2922004.0,-0.09096349775791168,-0.19150209426879883,-9.950927734375,-0.2442748099565506,-0.35114502906799316,-1.3740458488464355,937.2847900390625,3002.0,1397.069580078125,284.4444580078125,382.8125
1912158.9175241,2922011.75,-0.05745062977075577,-0.19868342578411102,-9.950927734375,1.038167953491211,0.13740457594394684,-0.5496183037757874,962.3640747070312,2941.0,1402.930419921875,284.4444580078125,382.8125
1912158.9263466,2922019.5,-0.11490125954151154,-0.09575104713439941,-10.154398918151855,9.526717185974121,6.824427604675293,1.4045801162719727,986.5989990234375,2885.0,1402.19775390625,284.4444580078125,382.8125
1912158.9325886,2922027.25,-0.0550568513572216,-0.16277678310871124,-10.09934139251709,12.442748069763184,10.015267372131348,3.328244209289551,1018.1922607421875,2816.0,1389.7435302734375,284.4444580078125,382.8125
1912158.9405242,2922035.25,0.009575104340910912,-0.27289047837257385,-9.94614028930664,9.236640930175781,7.862595558166504,5.496183395385742,1023.4168090820312,2805.0,1364.835205078125,284.4444580078125,382.8125
1912158.9407957,2922043.0,-0.07660083472728729,-0.27289047837257385,-10.008378028869629,8.503816604614258,7.618320465087891,3.282442808151245,1047.3564453125,2756.0,1315.018310546875,284.4444580078125,382.8125
1912158.9524045,2922050.75,-0.019150208681821823,-0.29443445801734924,-9.90305233001709,6.259541988372803,5.954198360443115,1.8167939186096191,1065.153564453125,2721.0,1227.8388671875,284.4444580078125,382.8125
1912158.9597948,2922058.5,0.18910831212997437,-0.48833033442497253,-9.39317798614502,-4.610687255859375,-4.85496187210083,2.2595419883728027,1071.3953857421875,2709.0,1121.6116943359375,284.4444580078125,382.8125
1912158.9672369,2922066.5,-0.08617594093084335,-0.2704966962337494,-10.037103652954102,-2.183206081390381,-2.1984732151031494,0.21374045312404633,1090.026123046875,2674.0,1033.6995849609375,284.4444580078125,382.8125
1912158.9784848,2922074.25,-0.08617594093084335,-0.2824655771255493,-9.972471237182617,-1.8320610523223877,-2.0458016395568848,-6.488549709320068,1081.9627685546875,2689.0,978.7545776367188,284.4444580078125,382.8125
1912158.9821853,2922082.0,-0.03111908957362175,-0.323159784078598,-9.874326705932617,-5.267175674438477,-4.885496139526367,-5.8015265464782715,1091.6531982421875,2671.0,949.4505615234375,284.4444580078125,382.8125
1912158.9951403,2922089.75,0.12208258360624313,-0.34230998158454895,-9.752243995666504,-12.656488418579102,-11.41984748840332,-0.13740457594394684,1096.0159912109375,2663.0,938.4615478515625,284.4444580078125,382.8125
1912158.9957744,2922097.75,-0.04787552356719971,-0.27289047837257385,-10.00359058380127,-12.19847297668457,-10.045801162719727,1.0229008197784424,1078.2406005859375,2696.0,942.12451171875,284.4444580078125,382.8125
1912159.0074089,2922105.5,-0.22262118756771088,-0.10293237864971161,-10.173548698425293,-2.885496139526367,-2.564885377883911,0.8244274854660034,1081.429443359375,2690.0,962.6373901367188,284.4444580078125,382.8125
1912159.0183832,2922113.25,-0.18192699551582336,-0.1316576898097992,-10.195093154907227,2.534351110458374,1.694656491279602,-0.1679389327764511,1042.3802490234375,2766.0,1012.4542236328125,284.4444580078125,382.8125
1912159.0335241,2922121.0,0.15320166945457458,-0.2896469235420227,-9.962896347045898,1.3740458488464355,0.9618320465087891,6.183206081390381,997.8167724609375,2860.0,1084.2490234375,284.4444580078125,382.8125
1912159.0405196,2922129.0,0.124476358294487,-0.2776780426502228,-9.876720428466797,-1.6183205842971802,-1.4045801162719727,15.099236488342285,973.8983764648438,2914.0,1151.6483154296875,284.4444580078125,382.8125
1912159.0455352,2922136.75,-0.05026929825544357,-0.25134649872779846,-9.934170722961426,-0.5343511700630188,-0.30534350872039795,15.816793441772461,947.4033813476562,2977.0,1201.4652099609375,284.4444580078125,382.8125
1912159.051597,2922144.5,-0.014362657442688942,-0.2345900684595108,-10.10173511505127,2.2290077209472656,2.0458016395568848,17.083969116210938,945.769775390625,2981.0,1240.2930908203125,284.4444580078125,382.8125
1912159.0604475,2922152.25,0.09575104713439941,-0.23937761783599854,-10.183123588562012,3.175572633743286,1.9541984796524048,19.389312744140625,934.09228515625,3010.0,1276.923095703125,284.4444580078125,382.8125
1912159.0633537,2922160.25,-0.29443445801734924,-0.28725314140319824,-9.53201675415039,-3.358778715133667,-3.2366411685943604,8.274808883666992,920.7634887695312,3044.0,1309.157470703125,284.4444580078125,382.8125
1912159.0678875,2922168.0,-0.12926390767097473,-0.3447037637233734,-9.967683792114258,-10.244275093078613,-8.061068534851074,5.572519302368164,901.0983276367188,3096.0,1328.205078125,284.4444580078125,382.8125
1912159.071548,2922175.75,-0.18910831212997437,-0.23937761783599854,-9.90544605255127,-12.335877418518066,-9.496183395385742,0.7480915784835815,873.4743041992188,3173.0,1312.820556640625,284.4444580078125,382.8125
1912159.0877137,2922183.5,-0.08856971561908722,-0.1651705503463745,-10.226211547851562,-7.190839767456055,-7.877862453460693,2.137404680252075,870.7010498046875,3181.0,1171.4285888671875,284.4444580078125,179.6875
1912159.0940952,2922191.5,-0.2776780426502228,0.07420706003904343,-10.209455490112305,3.969465732574463,3.6946563720703125,2.8702290058135986,861.8084716796875,3207.0,859.3406372070312,284.4444580078125,179.6875
1912159.1000757,2922199.25,0.04069419577717781,-0.34230998158454895,-9.816876411437988,-4.381679534912109,-2.671755790710449,3.9541983604431152,852.4328002929688,3235.0,526.00732421875,284.4444580078125,179.6875
1912159.1159773,2922207.0,-0.07420706003904343,-0.2824655771255493,-9.936565399169922,-0.18320611119270325,-2.6259541511535645,-0.09160305559635162,854.092041015625,3230.0,280.5860900878906,284.4444580078125,179.6875
1912159.1260437,2922214.75,0.02154398523271084,-0.3183722198009491,-9.611011505126953,-3.038167953491211,-2.610687017440796,-1.4503816366195679,844.2323608398438,3260.0,161.1721649169922,284.4444580078125,179.6875
1912159.1380544,2922222.75,0.016756433993577957,-0.25852781534194946,-9.99401569366455,-0.290076345205307,-1.6335878372192383,1.5572519302368164,847.821044921875,3249.0,168.4981689453125,284.4444580078125,179.6875
1912159.1400929,2922230.5,-0.14362657070159912,-0.241771399974823,-9.967683792114258,0.015267175622284412,0.3206106722354889,0.7480915784835815,847.821044921875,3249.0,285.71429443359375,284.4444580078125,179.6875
1912159.1404709,2922238.25,-0.0694195106625557,-0.22980251908302307,-10.008378028869629,-0.8396946787834167,-0.6564885377883911,-1.389312982559204,841.3187255859375,3269.0,464.4688720703125,284.4444580078125,179.6875
1912159.1509002,2922246.0,-0.06702573597431183,-0.2345900684595108,-10.108917236328125,-0.7175572514533997,-0.7480915784835815,-1.572519063949585,845.2080688476562,3257.0,649.084228515625,284.4444580078125,179.6875
1912159.1512551,2922254.0,-0.07420706003904343,-0.22980251908302307,-10.082585334777832,-0.885496199131012,-0.9465649127960205,-1.465648889541626,837.4649658203125,3281.0,804.3956298828125,284.4444580078125,179.6875
1912159.1669212,2922261.75,-0.06463195383548737,-0.21543985605239868,-9.917414665222168,-0.5954198241233826,-0.9312977194786072,-1.4351145029067993,837.7847900390625,3280.0,931.8681030273438,284.4444580078125,179.6875
1912159.1672417,2922269.5,-0.04308797046542168,-0.19628964364528656,-9.919808387756348,-0.1221374049782753,-0.4122137427330017,-1.2977099418640137,840.9962158203125,3270.0,1032.234375,284.4444580078125,179.6875
1912159.1788868,2922277.25,-0.07181328535079956,-0.2345900684595108,-9.95571517944336,-1.2061069011688232,-0.9465649127960205,-1.1908396482467651,836.188232421875,3285.0,1111.3553466796875,284.4444580078125,179.6875
1912159.1947739,2922285.25,-0.07660083472728729,-0.21543985605239868,-9.950927734375,-1.3740458488464355,-0.9312977194786072,-1.6793893575668335,845.8598022460938,3255.0,1167.765625,284.4444580078125,179.6875
1912159.1957697,2922293.0,-0.10293237864971161,-0.19150209426879883,-10.032316207885742,-0.3206106722354889,-0.5648854970932007,-1.2519084215164185,844.2323608398438,3260.0,1208.791259765625,284.4444580078125,179.6875
1912159.2047815,2922300.75,-0.07660083472728729,-0.18432076275348663,-9.970077514648438,0.06106870248913765,-0.30534350872039795,-1.572519063949585,849.7913818359375,3243.0,1245.4212646484375,284.4444580078125,179.6875
1912159.2050785,2922308.5,-0.07181328535079956,-0.22501495480537415,-10.00598430633545,-0.030534351244568825,-0.21374045312404633,-1.6488549709320068,861.1319580078125,3209.0,1282.05126953125,284.4444580078125,179.6875
1912159.2147308,2922316.5,-0.0694195106625557,-0.2202274054288864,-9.95332145690918,-0.015267175622284412,-0.3358778655529022,-1.3129770755767822,859.4453125,3214.0,1335.5311279296875,284.4444580078125,179.6875
1912159.2307208,2922324.25,-0.0550568513572216,-0.2345900684595108,-9.90783977508545,-0.8244274854660034,-0.9923664331436157,-1.160305380821228,871.7389526367188,3178.0,1404.3956298828125,284.4444580078125,179.6875
1912159.2310761,2922332.0,-0.02633153833448887,-0.25852781534194946,-9.962896347045898,-2.030534267425537,-2.1221373081207275,-1.1908396482467651,874.1703491210938,3171.0,1482.05126953125,284.4444580078125,179.6875
1912159.2396835,2922339.75,-0.04308797046542168,-0.25134649872779846,-9.94853401184082,-3.1603052616119385,-2.580152750015259,-1.2213740348815918,875.216552734375,3168.0,1553.84619140625,284.4444580078125,179.6875
1912159.2476801,2922347.75,-0.12208258360624313,-0.1795332133769989,-10.00119686126709,0.21374045312404633,-0.2748091518878937,-1.267175555229187,883.677001953125,3144.0,1619.047607421875,284.4444580078125,179.6875
1912159.2557283,2922355.5,-0.08617594093084335,-0.23219628632068634,-9.891082763671875,-0.5190839767456055,-0.8396946787834167,-1.160305380821228,878.3701782226562,3159.0,1673.99267578125,284.4444580078125,179.6875
1912159.2690444,2922363.25,-0.12208258360624313,-0.2274087369441986,-9.962896347045898,-1.770992398262024,-1.3435114622116089,-1.4351145029067993,887.9688720703125,3132.0,1726.7398681640625,284.4444580078125,179.6875
1912159.2710763,2922371.0,-0.16277678310871124,-0.15320166945457458,-10.020346641540527,1.1297709941864014,1.5572519302368164,-0.9007633328437805,880.4852294921875,3153.0,1783.8828125,284.4444580078125,179.6875
1912159.2812734,2922379.0,-0.2609215974807739,-0.014362657442688942,-10.290843963623047,16.213741302490234,11.786259651184082,0.8702290058135986,849.4623413085938,3244.0,1835.164794921875,284.4444580078125,179.6875
1912159.2871135,2922386.75,-0.07660083472728729,-0.3255535662174225,-9.869539260864258,12.83969497680664,10.412213325500488,-0.9923664331436157,844.2323608398438,3260.0,1879.853515625,284.4444580078125,179.6875
1912159.2990768,2922394.5,0.0,-0.3470975458621979,-9.723519325256348,7.3740458488464355,6.030534267425537,-1.6030534505844116,834.2803955078125,3291.0,1901.83154296875,284.4444580078125,179.6875
1912159.3089746,2922402.25,0.0,-0.30640333890914917,-10.00359058380127,5.877862453460693,4.778625965118408,-1.0687023401260376,836.5070190429688,3284.0,1890.10986328125,284.4444580078125,179.6875
1912159.3092485,2922410.25,-0.06702573597431183,-0.32076600193977356,-9.883901596069336,2.564885377883911,1.9389313459396362,-2.748091697692871,836.5070190429688,3284.0,1863.7362060546875,284.4444580078125,179.6875
1912159.3190808,2922418.0,-0.10293237864971161,-0.3375224471092224,-9.90305233001709,-3.1297709941864014,-2.7328243255615234,-7.9083967208862305,827.6709594726562,3312.0,1836.6300048828125,284.4444580078125,179.6875
1912159.3269698,2922425.75,-0.05745062977075577,-0.3183722198009491,-9.778575897216797,-8.19847297668457,-7.4809160232543945,-10.366412162780762,831.7501220703125,3299.0,1810.989013671875,284.4444580078125,179.6875
1912159.3339235,2922433.5,0.02154398523271084,-0.2824655771255493,-9.922202110290527,-9.312976837158203,-8.503816604614258,-9.496183395385742,825.1805419921875,3320.0,1773.6263427734375,284.4444580078125,179.6875
1912159.3428839,2922441.5,-0.04069419577717781,-0.25852781534194946,-9.941352844238281,-10.09160327911377,-8.045801162719727,-8.702290534973145,826.4238891601562,3316.0,1725.2747802734375,284.4444580078125,179.6875
1912159.3558887,2922449.25,-0.04069419577717781,-0.2345900684595108,-9.94614028930664,-8.702290534973145,-7.083969593048096,-8.351144790649414,829.235107421875,3307.0,1657.142822265625,284.4444580078125,179.6875
1912159.3610644,2922457.0,-0.12687014043331146,-0.15320166945457458,-10.132854461669922,-5.526717662811279,-3.679389238357544,-10.763359069824219,822.705078125,3328.0,1572.1611328125,284.4444580078125,179.6875
1912159.3614851,2922464.75,-0.05026929825544357,-0.1795332133769989,-10.120885848999023,-1.2061069011688232,-1.160305380821228,-9.541984558105469,828.2958984375,3310.0,1494.5054931640625,284.4444580078125,179.6875
1912159.3738319,2922472.75,-0.15559545159339905,-0.19150209426879883,-10.077797889709473,0.4580152630805969,-0.3206106722354889,-13.114503860473633,823.3225708007812,3326.0,1438.827880859375,284.4444580078125,179.6875
1912159.3818224,2922480.5,-0.10532615333795547,-0.248952716588974,-9.879114151000977,0.015267175622284412,-0.5648854970932007,-16.732824325561523,815.0640869140625,3353.0,1408.791259765625,284.4444580078125,179.6875
1912159.3879711,2922488.25,0.04069419577717781,-0.2776780426502228,-9.977258682250977,-3.0839693546295166,-3.1908397674560547,-13.954198837280273,813.8546752929688,3357.0,1398.5347900390625,284.4444580078125,179.6875
1912159.403388,2922496.0,0.07660083472728729,-0.2609215974807739,-9.910233497619629,-3.3740458488464355,-3.251908302307129,-6.85496187210083,803.7178344726562,3391.0,1413.91943359375,284.4444580078125,312.5
1912159.4073371,2922504.0,-0.04308797046542168,-0.2776780426502228,-9.991621971130371,-4.748091697692871,-3.8473281860351562,-2.7633588314056396,806.0801391601562,3383.0,1457.142822265625,284.4444580078125,312.5
1912159.4184166,2922511.75,-0.07899461686611176,-0.18432076275348663,-10.116098403930664,2.580152750015259,1.9541984796524048,-2.244274854660034,802.2483520507812,3396.0,1532.6007080078125,284.4444580078125,312.5
1912159.4186817,2922519.5,-0.12687014043331146,-0.25134649872779846,-10.020346641540527,1.038167953491211,-0.5190839767456055,-3.9083969593048096,799.3255004882812,3406.0,1621.245361328125,284.4444580078125,312.5
1912159.4244085,2922527.25,-0.15559545159339905,-0.22262118756771088,-9.984440803527832,0.5496183037757874,-0.2442748099565506,-7.068702220916748,804.0123291015625,3390.0,1707.6922607421875,284.4444580078125,312.5
1912159.4388647,2922535.25,-0.20347097516059875,-0.1723518818616867,-9.936565399169922,1.2824426889419556,0.5038167834281921,-14.09160327911377,797.0025024414062,3414.0,1766.3004150390625,284.4444580078125,312.5
1912159.4414006,2922543.0,-0.1867145448923111,-0.15559545159339905,-10.068222999572754,3.6641221046447754,2.610687017440796,-17.770992279052734,800.4920654296875,3402.0,1795.6043701171875,284.4444580078125,312.5
1912159.4605223,2922550.75,-0.09575104713439941,-0.2896469235420227,-9.773788452148438,-1.2824426889419556,-0.6870229244232178,-20.946565628051758,800.4920654296875,3402.0,1794.13916015625,284.4444580078125,312.5
1912159.4660825,2922558.5,-0.1316576898097992,-0.21783363819122314,-9.979653358459473,-2.931297779083252,-1.6641221046447754,-23.81679344177246,795.8460693359375,3418.0,1773.6263427734375,284.4444580078125,312.5
1912159.4720644,2922566.5,-0.10532615333795547,-0.20347097516059875,-9.991621971130371,-1.6488549709320068,-0.8396946787834167,-24.931297302246094,800.4920654296875,3402.0,1757.5091552734375,284.4444580078125,312.5
1912159.4800543,2922574.25,-0.02154398523271084,-0.1867145448923111,-10.015559196472168,0.5954198241233826,-0.8244274854660034,-21.954198837280273,794.4052124023438,3423.0,1754.5787353515625,284.4444580078125,312.5
1912159.4804221,2922582.0,-0.016756433993577957,-0.22501495480537415,-9.989228248596191,0.290076345205307,-0.5343511700630188,-18.610687255859375,797.2921142578125,3413.0,1754.5787353515625,284.4444580078125,312.5
1912159.4883068,2922589.75,0.05745062977075577,-0.23937761783599854,-9.991621971130371,0.10687022656202316,-0.15267175436019897,-14.305343627929688,799.3255004882812,3406.0,1745.054931640625,284.4444580078125,312.5
1912159.4943218,2922597.75,0.004787552170455456,-0.248952716588974,-9.95571517944336,0.9923664331436157,0.3358778655529022,-11.664122581481934,793.543212890625,3426.0,1723.8095703125,284.4444580078125,312.5
1912159.5043737,2922605.5,0.0694195106625557,-0.2704966962337494,-9.90305233001709,-0.9923664331436157,-0.9770992398262024,-7.5877861976623535,797.8720703125,3411.0,1695.238037109375,284.4444580078125,312.5
1912159.5192881,2922613.25,0.07420706003904343,-0.2752842605113983,-9.965290069580078,-3.3740458488464355,-2.992366313934326,-0.7786259651184082,792.9696044921875,3428.0,1662.2711181640625,284.4444580078125,312.5
1912159.5253037,2922621.0,-0.09814482182264328,-0.21304607391357422,-10.015559196472168,-1.9389313459396362,-1.8625954389572144,-1.5572519302368164,793.543212890625,3426.0,1629.3040771484375,284.4444580078125,312.5
1912159.536203,2922629.0,-0.09575104713439941,-0.2082585245370865,-10.027528762817383,-0.15267175436019897,-0.5038167834281921,-1.5114504098892212,796.1348876953125,3417.0,1592.6739501953125,284.4444580078125,312.5
1912159.5366366,2922636.75,-0.11250747740268707,-0.24416516721248627,-9.982047080993652,-1.2977099418640137,-1.267175555229187,-1.1908396482467651,789.2611083984375,3441.0,1557.5091552734375,284.4444580078125,312.5
1912159.547343,2922644.5,-0.09814482182264328,-0.2537402808666229,-9.95571517944336,-2.85496187210083,-2.3358778953552246,-1.496183156967163,794.4052124023438,3423.0,1529.6702880859375,284.4444580078125,312.5
1912159.557141,2922652.25,-0.1101137027144432,-0.248952716588974,-9.958108901977539,-3.0229008197784424,-2.4122138023376465,-1.5572519302368164,790.9683837890625,3435.0,1511.3553466796875,284.4444580078125,312.5
1912159.5574319,2922660.25,-0.11250747740268707,-0.22980251908302307,-9.941352844238281,-2.9770991802215576,-2.4885497093200684,-1.389312982559204,788.6936645507812,3443.0,1492.3077392578125,284.4444580078125,312.5
1912159.5687211,2922668.0,-0.10771992802619934,-0.2202274054288864,-9.982047080993652,-2.0458016395568848,-1.8320610523223877,-1.2213740348815918,791.253662109375,3434.0,1473.2601318359375,284.4444580078125,312.5
1912159.5747611,2922675.75,-0.10293237864971161,-0.18910831212997437,-10.04667854309082,-0.04580152779817581,-0.2748091518878937,-1.3435114622116089,784.1832275390625,3459.0,1454.945068359375,284.4444580078125,312.5
1912159.5866551,2922683.5,-0.07181328535079956,-0.23698383569717407,-9.989228248596191,-1.038167953491211,-1.0992366075515747,-1.496183156967163,787.843994140625,3446.0,1441.025634765625,284.4444580078125,312.5
1912159.5951394,2922691.5,-0.11250747740268707,-0.21065230667591095,-9.984440803527832,-0.10687022656202316,-0.35114502906799316,-3.038167953491211,785.8685913085938,3453.0,1431.5018310546875,284.4444580078125,312.5
1912159.5997377,2922699.25,-0.07899461686611176,-0.19628964364528656,-9.967683792114258,0.3664122223854065,-0.13740457594394684,-2.2595419883728027,782.7842407226562,3464.0,1424.17578125,284.4444580078125,312.5
1912159.6127068,2922707.0,-0.0694195106625557,-0.2010771930217743,-9.917414665222168,-0.7480915784835815,-0.5648854970932007,-1.1908396482467651,787.278564453125,3448.0,1416.849853515625,284.4444580078125,312.5
1912159.6187026,2922714.75,-0.06463195383548737,-0.241771399974823,-9.941352844238281,-1.3282443284988403,-1.3740458488464355,-1.1755725145339966,781.112060546875,3470.0,1413.186767578125,284.4444580078125,312.5
1912159.6304043,2922722.75,-0.09335727244615555,-0.2082585245370865,-9.965290069580078,-1.2366411685943604,-1.3587785959243774,-1.160305380821228,785.0249633789062,3456.0,1419.047607421875,284.4444580078125,312.5
1912159.6307972,2922730.5,-0.08378216624259949,-0.20586475729942322,-9.979653358459473,-0.7786259651184082,-0.6259542107582092,-1.6793893575668335,785.8685913085938,3453.0,1425.6409912109375,284.4444580078125,312.5
1912159.6364007,2922738.25,-0.06463195383548737,-0.2274087369441986,-9.962896347045898,-0.6564885377883911,-0.7938931584358215,-0.9465649127960205,782.22607421875,3466.0,1426.3736572265625,284.4444580078125,312.5
1912159.6493738,2922746.0,-0.06702573597431183,-0.2345900684595108,-9.99640941619873,-0.4122137427330017,-0.7175572514533997,-1.3129770755767822,787.5612182617188,3447.0,1424.17578125,284.4444580078125,312.5
1912159.654354,2922754.0,-0.07660083472728729,-0.2274087369441986,-9.99401569366455,-0.7175572514533997,-0.7786259651184082,-1.267175555229187,783.0636596679688,3463.0,1424.17578125,284.4444580078125,312.5
1912159.6674275,2922761.75,-0.06702573597431183,-0.25134649872779846,-9.89587116241455,-1.7557251453399658,-1.267175555229187,-1.2977099418640137,785.3059692382812,3455.0,1430.03662109375,284.4444580078125,312.5
1912159.6753037,2922769.5,-0.06463195383548737,-0.2609215974807739,-9.941352844238281,-1.0076335668563843,-1.0534350872039795,-1.4198473691940308,788.4102172851562,3444.0,1430.769287109375,284.4444580078125,312.5
1912159.6834678,2922777.25,-0.09096349775791168,-0.25134649872779846,-9.960502624511719,-1.2061069011688232,-1.0229008197784424,-1.389312982559204,783.9030151367188,3460.0,1427.106201171875,284.4444580078125,312.5
1912159.6903591,2922785.25,-0.12926390767097473,-0.21783363819122314,-9.986834526062012,-1.0992366075515747,-1.0076335668563843,-1.2213740348815918,789.545166015625,3440.0,1424.17578125,284.4444580078125,312.5
1912159.6908795,2922793.0,-0.10293237864971161,-0.21304607391357422,-9.95332145690918,-0.9923664331436157,-1.0839694738388062,-1.160305380821228,785.587158203125,3454.0,1424.908447265625,284.4444580078125,312.5
1912159.7003824,2922800.75,-0.09096349775791168,-0.20586475729942322,-9.962896347045898,-0.9007633328437805,-0.885496199131012,-1.3587785959243774,786.7139892578125,3450.0,1427.8388671875,284.4444580078125,312.5
1912159.706259,2922808.5,-0.09096349775791168,-0.1938958764076233,-9.99880313873291,-0.6259542107582092,-0.8549618124961853,-1.1297709941864014,790.683349609375,3436.0,1424.908447265625,284.4444580078125,312.5
1912159.7172044,2922816.5,-0.07420706003904343,-0.2202274054288864,-9.977258682250977,-0.732824444770813,-0.6412213444709778,-1.1297709941864014,785.0249633789062,3456.0,1416.849853515625,284.4444580078125,312.5
1912159.7570938,2922824.25,-0.0694195106625557,-0.1867145448923111,-9.99401569366455,-0.4580152630805969,-0.9923664331436157,-1.4198473691940308,790.1138305664062,3438.0,1416.1171875,284.4444580078125,312.5
1912159.7575021,2922832.0,-0.07899461686611176,-0.21304607391357422,-9.979653358459473,-0.5648854970932007,-0.4885496199131012,-1.1297709941864014,788.6936645507812,3443.0,1419.7802734375,284.4444580078125,312.5
1912159.7580193,2922839.75,-0.07420706003904343,-0.2345900684595108,-9.950927734375,-0.9923664331436157,-0.732824444770813,-1.1908396482467651,787.843994140625,3446.0,1421.97802734375,284.4444580078125,312.5
1912159.75843,2922847.75,-0.07899461686611176,-0.21304607391357422,-9.986834526062012,-0.4122137427330017,-0.6106870174407959,-0.9312977194786072,792.68310546875,3429.0,1421.97802734375,284.4444580078125,312.5
1912159.7622438,2922855.5,-0.08378216624259949,-0.19868342578411102,-10.010771751403809,-1.1145038604736328,-0.8702290058135986,-0.6412213444709778,786.9961547851562,3449.0,1422.7105712890625,284.4444580078125,359.375
1912159.7641888,2922863.25,-0.07420706003904343,-0.2345900684595108,-9.974864959716797,-0.6564885377883911,-0.5038167834281921,-0.9160305261611938,792.3967895507812,3430.0,1424.17578125,284.4444580078125,359.375
1912159.7760726,2922871.0,-0.06702573597431183,-0.2082585245370865,-9.95332145690918,-0.8091602921485901,-0.6564885377883911,-1.1297709941864014,792.3967895507812,3430.0,1427.106201171875,284.4444580078125,359.375
1912159.7870507,2922879.0,-0.07420706003904343,-0.18910831212997437,-9.94853401184082,-0.7786259651184082,-0.9312977194786072,-1.0076335668563843,789.545166015625,3440.0,1424.17578125,284.4444580078125,359.375
1912159.7873237,2922886.75,-0.08856971561908722,-0.2010771930217743,-9.95332145690918,-0.6717557311058044,-0.8244274854660034,-0.442748099565506,795.2691040039062,3420.0,1419.7802734375,284.4444580078125,359.375
1912159.7912373,2922894.5,-0.10771992802619934,-0.22980251908302307,-9.979653358459473,-0.580152690410614,-0.7022900581359863,-0.8702290058135986,790.9683837890625,3435.0,1414.6519775390625,284.4444580078125,359.375
1912159.8070377,2922902.25,-0.1172950342297554,-0.23698383569717407,-9.986834526062012,-0.7938931584358215,-1.0687023401260376,-1.3282443284988403,794.6929931640625,3422.0,1416.1171875,284.4444580078125,359.375
1912159.8111327,2922910.25,-0.09575104713439941,-0.22980251908302307,-10.013165473937988,-0.7633587718009949,-0.7480915784835815,-1.3129770755767822,797.0025024414062,3414.0,1417.5823974609375,284.4444580078125,359.375
1912159.8192415,2922918.0,-0.11490125954151154,-0.22980251908302307,-9.984440803527832,-0.8091602921485901,-0.7786259651184082,-1.2061069011688232,792.68310546875,3429.0,1413.186767578125,284.4444580078125,359.375
1912159.8261107,2922925.75,-0.08617594093084335,-0.2345900684595108,-9.970077514648438,-0.8549618124961853,-0.8549618124961853,-1.1755725145339966,798.4528198242188,3409.0,1405.86083984375,284.4444580078125,359.375
1912159.8390261,2922933.5,-0.07899461686611176,-0.22501495480537415,-9.960502624511719,-0.9160305261611938,-0.7175572514533997,-1.3587785959243774,794.6929931640625,3422.0,1401.4652099609375,284.4444580078125,359.375
1912159.8474398,2922941.5,-0.06463195383548737,-0.22262118756771088,-9.982047080993652,-0.6564885377883911,-0.5343511700630188,-1.2977099418640137,796.7130737304688,3415.0,1398.5347900390625,284.4444580078125,359.375
1912159.8520887,2922949.25,-0.06463195383548737,-0.2082585245370865,-9.958108901977539,-0.9465649127960205,-1.038167953491211,-1.2824426889419556,799.9083862304688,3404.0,1392.6739501953125,284.4444580078125,359.375
1912159.8610082,2922957.0,-0.06702573597431183,-0.22262118756771088,-9.977258682250977,-0.732824444770813,-0.8396946787834167,-1.389312982559204,794.98095703125,3421.0,1386.08056640625,284.4444580078125,359.375
1912159.8615334,2922964.75,-0.07899461686611176,-0.19628964364528656,-9.974864959716797,-0.732824444770813,-0.8396946787834167,-1.3129770755767822,800.7842407226562,3401.0,1386.813232421875,284.4444580078125,359.375
1912159.8762008,2922972.75,-0.09335727244615555,-0.2082585245370865,-9.984440803527832,-0.9770992398262024,-0.7175572514533997,-1.4198473691940308,798.1622924804688,3410.0,1389.010986328125,284.4444580078125,359.375
1912159.877375,2922980.5,-0.09096349775791168,-0.21304607391357422,-10.00119686126709,-0.9923664331436157,-0.6106870174407959,-1.389312982559204,797.8720703125,3411.0,1393.4066162109375,284.4444580078125,359.375
1912159.8912486,2922988.25,-0.07420706003904343,-0.22501495480537415,-9.970077514648438,-0.5954198241233826,-0.7022900581359863,-1.160305380821228,802.8355102539062,3394.0,1390.4761962890625,284.4444580078125,359.375
1912159.9009294,2922996.0,-0.08138839155435562,-0.2010771930217743,-9.99880313873291,-0.6412213444709778,-0.9923664331436157,-1.4809160232543945,797.2921142578125,3413.0,1383.8828125,284.4444580078125,359.375
1912159.904953,2923004.0,-0.06702573597431183,-0.22262118756771088,-9.938959121704102,-0.8091602921485901,-1.1297709941864014,-1.3587785959243774,802.8355102539062,3394.0,1383.150146484375,284.4444580078125,359.375
1912159.9190716,2923011.75,-0.0694195106625557,-0.21543985605239868,-9.991621971130371,-0.9312977194786072,-0.6259542107582092,-1.2977099418640137,801.6620483398438,3398.0,1387.5457763671875,284.4444580078125,359.375
1912159.9193633,2923019.5,-0.05745062977075577,-0.23698383569717407,-9.989228248596191,-0.7633587718009949,-0.7938931584358215,-1.5419846773147583,800.7842407226562,3401.0,1385.3480224609375,284.4444580078125,359.375
1912159.9309004,2923027.25,-0.10771992802619934,-0.23219628632068634,-9.94853401184082,-0.8091602921485901,-0.9618320465087891,-1.5267175436019897,805.7841186523438,3384.0,1385.3480224609375,284.4444580078125,359.375
1912159.9528199,2923035.25,-0.10771992802619934,-0.22980251908302307,-9.979653358459473,-0.8702290058135986,-0.8091602921485901,-1.389312982559204,800.4920654296875,3402.0,1381.6849365234375,284.4444580078125,359.375
1912159.9531286,2923043.0,-0.10771992802619934,-0.22262118756771088,-9.967683792114258,-0.7480915784835815,-0.8549618124961853,-1.5572519302368164,804.8972778320312,3387.0,1385.3480224609375,284.4444580078125,359.375
1912159.9567649,2923050.75,-0.11968880891799927,-0.21783363819122314,-9.960502624511719,-0.732824444770813,-0.7633587718009949,-1.389312982559204,806.0801391601562,3383.0,1387.5457763671875,284.4444580078125,359.375
1912159.9648178,2923058.5,-0.1101137027144432,-0.23937761783599854,-9.984440803527832,-0.8549618124961853,-0.5648854970932007,-1.2061069011688232,802.8355102539062,3394.0,1385.3480224609375,284.4444580078125,359.375
1912159.9650795,2923066.5,-0.10293237864971161,-0.22501495480537415,-9.982047080993652,-0.7938931584358215,-0.6870229244232178,-1.3587785959243774,808.4564819335938,3375.0,1382.4176025390625,284.4444580078125,359.375
1912159.980816,2923074.25,-0.08856971561908722,-0.2202274054288864,-9.967683792114258,-0.9160305261611938,-0.9160305261611938,-1.3282443284988403,803.7178344726562,3391.0,1383.8828125,284.4444580078125,359.375
1912159.9812621,2923082.0,-0.0622381791472435,-0.2202274054288864,-9.950927734375,-0.7633587718009949,-0.4885496199131012,-1.1908396482467651,806.37646484375,3382.0,1389.7435302734375,284.4444580078125,226.5625
1912159.9909543,2923089.75,-0.05745062977075577,-0.22262118756771088,-9.962896347045898,-0.8091602921485901,-1.1297709941864014,-1.5267175436019897,809.052734375,3373.0,1395.6043701171875,284.4444580078125,226.5625
1912159.999756,2923097.75,-0.05745062977075577,-0.2202274054288864,-9.986834526062012,-0.580152690410614,-1.038167953491211,-1.3282443284988403,803.7178344726562,3391.0,1399.2674560546875,284.4444580078125,226.5625
1912160.0078207,2923105.5,-0.07660083472728729,-0.20586475729942322,-9.95571517944336,-1.0229008197784424,-0.8091602921485901,-1.0992366075515747,809.052734375,3373.0,1400.0,284.4444580078125,226.5625
1912160.0167003,2923113.25,-0.07181328535079956,-0.2274087369441986,-9.967683792114258,-0.732824444770813,-0.9312977194786072,-1.389312982559204,805.48828125,3385.0,1406.5933837890625,284.4444580078125,226.5625
1912160.0247017,2923121.0,-0.09814482182264328,-0.1867145448923111,-9.970077514648438,-0.885496199131012,-0.6564885377883911,-1.2213740348815918,806.37646484375,3382.0,1413.91943359375,284.4444580078125,226.5625
1912160.0345363,2923129.0,-0.09814482182264328,-0.20347097516059875,-9.958108901977539,-0.42748090624809265,-0.6412213444709778,-1.4045801162719727,810.5472412109375,3368.0,1415.3846435546875,284.4444580078125,226.5625
1912160.034815,2923136.75,-0.08138839155435562,-0.22980251908302307,-9.989228248596191,-0.7633587718009949,-0.9312977194786072,-1.1297709941864014,804.60205078125,3388.0,1410.989013671875,284.4444580078125,226.5625
1912160.0465901,2923144.5,-0.08856971561908722,-0.2345900684595108,-9.99401569366455,-0.8702290058135986,-0.9312977194786072,-1.2213740348815918,810.2478637695312,3369.0,1411.7215576171875,284.4444580078125,226.5625
1912160.0605907,2923152.25,-0.07660083472728729,-0.2202274054288864,-9.989228248596191,-0.8091602921485901,-1.1908396482467651,-1.2366411685943604,807.861083984375,3377.0,1413.91943359375,284.4444580078125,226.5625
1912160.0610556,2923160.25,-0.07660083472728729,-0.2082585245370865,-9.970077514648438,-0.8244274854660034,-0.8244274854660034,-1.5114504098892212,807.563720703125,3378.0,1413.186767578125,284.4444580078125,226.5625
1912160.0674276,2923168.0,-0.11490125954151154,-0.2274087369441986,-9.94853401184082,-0.6106870174407959,-0.9312977194786072,-1.2366411685943604,811.746826171875,3364.0,1407.3260498046875,284.4444580078125,226.5625
1912160.0693979,2923175.75,-0.10293237864971161,-0.23698383569717407,-9.991621971130371,-0.6412213444709778,-0.6564885377883911,-1.4503816366195679,806.0801391601562,3383.0,1400.7325439453125,284.4444580078125,226.5625
1912160.0824867,2923183.5,-0.1101137027144432,-0.22501495480537415,-9.986834526062012,-0.5190839767456055,-0.7633587718009949,-1.3587785959243774,811.4465942382812,3365.0,1397.069580078125,284.4444580078125,226.5625
1912160.0884187,2923191.5,-0.10771992802619934,-0.23937761783599854,-9.94853401184082,-0.8549618124961853,-0.8244274854660034,-1.3129770755767822,810.8468017578125,3367.0,1393.4066162109375,284.4444580078125,226.5625
1912160.0999617,2923199.25,-0.10532615333795547,-0.22262118756771088,-9.965290069580078,-0.7786259651184082,-1.0534350872039795,-1.4503816366195679,808.7544555664062,3374.0,1383.8828125,284.4444580078125,226.5625
1912160.1144256,2923207.0,-0.08617594093084335,-0.2202274054288864,-9.950927734375,-0.732824444770813,-0.9465649127960205,-1.4809160232543945,813.5528564453125,3358.0,1367.765625,284.4444580078125,226.5625
1912160.1147033,2923214.75,-0.09814482182264328,-0.21304607391357422,-9.977258682250977,-0.5343511700630188,-0.6717557311058044,-1.6335878372192383,807.563720703125,3378.0,1357.5091552734375,284.4444580078125,226.5625
1912160.1184349,2923222.75,-0.07899461686611176,-0.2082585245370865,-10.00359058380127,-0.7938931584358215,-0.8091602921485901,-1.6335878372192383,811.4465942382812,3365.0,1358.974365234375,284.4444580078125,226.5625
1912160.1284626,2923230.5,-0.08378216624259949,-0.21065230667591095,-9.986834526062012,-0.9618320465087891,-0.7022900581359863,-1.389312982559204,812.3479614257812,3362.0,1361.90478515625,284.4444580078125,226.5625
1912160.1390776,2923238.25,-0.09814482182264328,-0.19150209426879883,-9.986834526062012,-0.7022900581359863,-0.9007633328437805,-1.4045801162719727,808.4564819335938,3375.0,1359.7069091796875,284.4444580078125,226.5625
1912160.1500403,2923246.0,-0.09814482182264328,-0.21783363819122314,-9.943746566772461,-0.8549618124961853,-0.732824444770813,-1.4809160232543945,814.1566772460938,3356.0,1356.0439453125,284.4444580078125,226.5625
1912160.1503254,2923254.0,-0.09096349775791168,-0.21783363819122314,-9.94853401184082,-0.7786259651184082,-0.7175572514533997,-1.1145038604736328,809.3511962890625,3372.0,1355.3114013671875,284.4444580078125,226.5625
1912160.1661899,2923261.75,-0.09096349775791168,-0.21065230667591095,-9.99640941619873,-0.7633587718009949,-1.0076335668563843,-0.9160305261611938,811.746826171875,3364.0,1361.90478515625,284.4444580078125,226.5625
1912160.1762673,2923269.5,-0.08378216624259949,-0.2202274054288864,-9.986834526062012,-0.9007633328437805,-0.8396946787834167,-1.572519063949585,815.0640869140625,3353.0,1367.032958984375,284.4444580078125,226.5625
1912160.1767383,2923277.25,-0.0694195106625557,-0.2010771930217743,-9.979653358459473,-0.4122137427330017,-0.6564885377883911,-1.3740458488464355,809.9487915039062,3370.0,1368.4981689453125,284.4444580078125,226.5625
1912160.1904479,2923285.25,-0.05266307666897774,-0.23698383569717407,-9.965290069580078,-1.0076335668563843,-0.9007633328437805,-1.496183156967163,815.6701049804688,3351.0,1372.1611328125,284.4444580078125,226.5625
1912160.1910646,2923293.0,-0.08138839155435562,-0.22262118756771088,-9.960502624511719,-0.7022900581359863,-0.9312977194786072,-1.1908396482467651,811.746826171875,3364.0,1378.02197265625,284.4444580078125,226.5625
1912160.2043967,2923300.75,-0.07181328535079956,-0.2345900684595108,-9.962896347045898,-0.5648854970932007,-0.8396946787834167,-1.572519063949585,812.6488647460938,3361.0,1383.150146484375,284.4444580078125,226.5625
1912160.2111585,2923308.5,-0.10771992802619934,-0.2345900684595108,-9.986834526062012,-0.8244274854660034,-0.8396946787834167,-1.3435114622116089,816.5809326171875,3348.0,1386.08056640625,284.4444580078125,226.5625
1912160.2211672,2923316.5,-0.09575104713439941,-0.22262118756771088,-9.986834526062012,-0.6259542107582092,-1.0076335668563843,-1.3129770755767822,810.5472412109375,3368.0,1383.150146484375,284.4444580078125,226.5625
1912160.231183,2923324.25,-0.08378216624259949,-0.2345900684595108,-9.95332145690918,-0.5496183037757874,-1.038167953491211,-1.1145038604736328,815.6701049804688,3351.0,1384.6153564453125,284.4444580078125,226.5625
1912160.2315419,2923332.0,-0.09335727244615555,-0.21304607391357422,-9.94853401184082,-0.8091602921485901,-0.8702290058135986,-1.465648889541626,814.1566772460938,3356.0,1388.2784423828125,284.4444580078125,226.5625
1912160.2413334,2923339.75,-0.08617594093084335,-0.2202274054288864,-9.977258682250977,-0.5954198241233826,-0.7175572514533997,-1.2824426889419556,812.949951171875,3360.0,1391.94140625,232.72727966308594,257.8125
1912160.2461272,2923347.75,-0.08138839155435562,-0.22262118756771088,-9.960502624511719,-0.7175572514533997,-0.9465649127960205,-1.2366411685943604,817.189208984375,3346.0,1392.6739501953125,232.72727966308594,257.8125
1912160.2542383,2923355.5,-0.07899461686611176,-0.21543985605239868,-9.974864959716797,-0.7786259651184082,-0.6412213444709778,-1.0839694738388062,811.1466064453125,3366.0,1393.4066162109375,232.72727966308594,257.8125
1912160.2690691,2923363.25,-0.07181328535079956,-0.22501495480537415,-9.970077514648438,-0.5954198241233826,-0.9618320465087891,-1.3282443284988403,816.277099609375,3349.0,1397.80224609375,232.72727966308594,257.8125
1912160.278405,2923371.0,-0.07181328535079956,-0.22262118756771088,-9.950927734375,-0.5648854970932007,-0.7022900581359863,-1.160305380821228,816.277099609375,3349.0,1400.0,232.72727966308594,257.8125
1912160.2854008,2923379.0,-0.07899461686611176,-0.21304607391357422,-9.962896347045898,-0.6564885377883911,-0.8244274854660034,-1.6030534505844116,813.2512817382812,3359.0,1401.4652099609375,232.72727966308594,257.8125
1912160.2856658,2923386.75,-0.09575104713439941,-0.22262118756771088,-9.982047080993652,-0.8244274854660034,-0.9312977194786072,-1.267175555229187,817.7984619140625,3344.0,1400.0,232.72727966308594,257.8125
1912160.2941647,2923394.5,-0.09096349775791168,-0.20586475729942322,-10.013165473937988,-0.8396946787834167,-0.6412213444709778,-1.3435114622116089,812.6488647460938,3361.0,1397.80224609375,232.72727966308594,257.8125
1912160.3101339,2923402.25,-0.07420706003904343,-0.21065230667591095,-9.99640941619873,-0.7938931584358215,-0.9618320465087891,-1.267175555229187,816.277099609375,3349.0,1395.6043701171875,232.72727966308594,257.8125
1912160.3140848,2923410.25,-0.06702573597431183,-0.21304607391357422,-9.950927734375,-0.9770992398262024,-0.9618320465087891,-1.4809160232543945,818.1033935546875,3343.0,1386.813232421875,232.72727966308594,257.8125
1912160.324486,2923418.0,-0.07420706003904343,-0.21783363819122314,-9.965290069580078,-0.8091602921485901,-0.8244274854660034,-1.4503816366195679,812.3479614257812,3362.0,1375.091552734375,232.72727966308594,257.8125
1912160.3319853,2923425.75,-0.10293237864971161,-0.21783363819122314,-9.972471237182617,-0.7633587718009949,-1.0534350872039795,-1.267175555229187,818.1033935546875,3343.0,1364.1025390625,232.72727966308594,257.8125
1912160.3400162,2923433.5,-0.09335727244615555,-0.22262118756771088,-9.95332145690918,-0.6717557311058044,-0.6564885377883911,-1.4198473691940308,813.5528564453125,3358.0,1359.7069091796875,232.72727966308594,257.8125
1912160.3479004,2923441.5,-0.10532615333795547,-0.19868342578411102,-9.972471237182617,-0.8091602921485901,-1.0229008197784424,-1.3282443284988403,814.4589233398438,3355.0,1362.6373291015625,232.72727966308594,257.8125
1912160.3548865,2923449.25,-0.07181328535079956,-0.2537402808666229,-9.958108901977539,-1.0229008197784424,-1.7251908779144287,-1.2213740348815918,816.8849487304688,3347.0,1365.5677490234375,232.72727966308594,257.8125
1912160.3609806,2923457.0,-0.09814482182264328,-0.23698383569717407,-9.982047080993652,-0.5954198241233826,-0.9923664331436157,-1.6030534505844116,811.1466064453125,3366.0,1364.835205078125,232.72727966308594,257.8125
1912160.3612586,2923464.75,-0.09814482182264328,-0.24655894935131073,-9.974864959716797,-1.038167953491211,-1.1145038604736328,-1.3435114622116089,816.277099609375,3349.0,1374.3590087890625,232.72727966308594,257.8125
1912160.3725995,2923472.75,-0.06702573597431183,-0.241771399974823,-9.979653358459473,-0.9465649127960205,-1.0687023401260376,-0.8702290058135986,813.2512817382812,3359.0,1393.4066162109375,232.72727966308594,257.8125
1912160.3971094,2923480.5,-0.05266307666897774,-0.21304607391357422,-9.965290069580078,-1.0076335668563843,-0.5343511700630188,0.7175572514533997,812.6488647460938,3361.0,1413.91943359375,232.72727966308594,257.8125
1912160.3975775,2923488.25,-0.03590664267539978,-0.22262118756771088,-9.977258682250977,-0.15267175436019897,-0.18320611119270325,3.328244209289551,817.4937133789062,3345.0,1429.3040771484375,232.72727966308594,257.8125
1912160.4055039,2923496.0,0.7301017642021179,-0.27289047837257385,-9.816876411437988,-8.412213325500488,-19.633586883544922,16.931297302246094,811.1466064453125,3366.0,1441.75830078125,232.72727966308594,257.8125
1912160.40578,2923504.0,0.1101137027144432,-0.28007182478904724,-9.960502624511719,-4.702290058135986,-15.145038604736328,29.93893051147461,816.5809326171875,3348.0,1453.4798583984375,232.72727966308594,164.0625
1912160.4075982,2923511.75,-0.3662477433681488,-0.12208258360624313,-10.041891098022461,2.1221373081207275,7.43511438369751,33.22137451171875,815.0640869140625,3353.0,1465.201416015625,232.72727966308594,164.0625
1912160.41868,2923519.5,-0.1867145448923111,-0.16756433248519897,-9.979653358459473,2.671755790710449,9.786259651184082,30.076335906982422,813.2512817382812,3359.0,1463.7362060546875,232.72727966308594,164.0625
1912160.4259669,2923527.25,-0.019150208681821823,-0.2609215974807739,-9.95571517944336,-2.7938930988311768,-6.839694499969482,21.709922790527344,817.7984619140625,3344.0,1454.21240234375,232.72727966308594,164.0625
1912160.4415069,2923535.25,0.05026929825544357,-0.28007182478904724,-9.89826488494873,-5.4809160232543945,-17.053434371948242,20.534351348876953,812.6488647460938,3361.0,1433.6995849609375,232.72727966308594,164.0625
1912160.4418965,2923543.0,-0.11250747740268707,-0.2082585245370865,-9.94614028930664,-5.328244209289551,-16.885496139526367,20.45801544189453,816.277099609375,3349.0,1415.3846435546875,232.72727966308594,164.0625
1912160.4516001,2923550.75,-0.05266307666897774,-0.3997606337070465,-9.919808387756348,-5.358778476715088,-16.51908302307129,17.786258697509766,817.4937133789062,3345.0,1387.5457763671875,232.72727966308594,164.0625
1912160.459505,2923558.5,0.17713943123817444,-0.591262698173523,-9.962896347045898,-1.5572519302368164,-3.8778626918792725,16.412214279174805,813.8546752929688,3357.0,1341.3919677734375,232.72727966308594,164.0625
