timestamp,TIMESTAMP,ACCEL_X,ACCEL_Y,ACCEL_Z,GYRO_P,GYRO_R,GYRO_Y,GSR_RES,GSR_CON,PPG_RAW,HEART_RATE,HRV
164426.1699,326963.9063,-6.800718307,5.412327766,-4.258527756,-0.610687017,-0.778625965,-1.312977076,320.7492676,2756,1402.93042,-1,421.875
164426.1823,326971.7188,-6.8342309,5.421903133,-4.263315201,-0.763358772,-1.11450386,-1.541984677,320.7492676,2756,1400.732544,-1,421.875
164426.1853,326979.5313,-6.798324585,5.431478024,-4.260921478,-0.916030526,-0.870229006,-1.541984677,320.5950317,2757,1400,-1,421.875
164426.1903,326987.3438,-6.771992683,5.409934044,-4.258527756,-0.97709924,-0.809160292,-1.648854971,320.5950317,2757,1400,-1,421.875
164426.2326,326995.1563,-6.748054981,5.431478024,-4.232196331,-0.793893158,-0.656488538,-1.679389358,320.440918,2758,1400,-1,421.875
164426.2356,327002.9688,-6.769598961,5.424296856,-4.248952866,-0.610687017,-1.129770994,-1.572519064,320.5950317,2757,1400.732544,-1,421.875
164426.2373,327010.7813,-6.795930386,5.426690578,-4.229802608,-0.809160292,-1.083969474,-1.709923625,320.440918,2758,1403.662964,-1,421.875
164426.2386,327018.5938,-6.791142941,5.429084301,-4.227408886,-0.748091578,-0.854961812,-1.55725193,320.440918,2758,1405.86084,-1,421.875
164426.2405,327026.4063,-6.795930386,5.409934044,-4.217833519,-0.549618304,-1.251908422,-1.450381637,320.2869873,2759,1405.86084,-1,421.875
164426.2419,327034.2188,-6.791142941,5.431478024,-4.248952866,-0.458015263,-1.236641169,-1.282442689,320.440918,2758,1402.197754,-1,421.875
164426.2434,327042.0313,-6.815080643,5.433871746,-4.217833519,-0.290076345,-1.221374035,-1.251908422,320.2869873,2759,1400.732544,-1,421.875
164426.245,327049.8438,-6.815080643,5.397965431,-4.213046074,-0.274809152,-1.007633567,-1.419847369,320.5950317,2757,1398.53479,-1,421.875
164426.2594,327057.6563,-6.827049732,5.407540321,-4.198683262,-0.351145029,-0.854961812,-1.175572515,320.440918,2758,1396.337036,-1,421.875
164426.2691,327065.4688,-6.815080643,5.405146599,-4.220227242,-0.687022924,-1.297709942,-1.099236608,320.440918,2758,1394.871826,-1,421.875
164426.276,327073.2813,-6.81268692,5.433871746,-4.217833519,-0.732824445,-0.931297719,-1.251908422,320.2869873,2759,1393.406616,-1,421.875
164426.2776,327081.0938,-6.822262287,5.429084301,-4.217833519,-1.160305381,-1.236641169,-1.389312983,320.2869873,2759,1391.20874,-1,421.875
164426.2872,327088.9063,-6.843806267,5.453022003,-4.227408886,-0.885496199,-0.748091578,-1.694656491,320.2869873,2759,1388.278442,-1,421.875
164426.2993,327096.7188,-6.798324585,5.460203648,-4.244164944,-0.793893158,-0.473282456,-1.55725193,320.440918,2758,1384.615356,-1,304.6875
164426.3051,327104.5313,-6.800718307,5.421903133,-4.241771221,-0.53435117,-0.229007632,-1.770992398,320.2869873,2759,1384.615356,-1,304.6875
164426.3138,327112.3438,-6.788749218,5.402752876,-4.248952866,-0.061068702,-0.229007632,-1.603053451,320.2869873,2759,1386.813232,-1,304.6875
164426.322,327120.1563,-6.822262287,5.417115688,-4.234590054,-0.290076345,-0.106870227,-1.526717544,320.1331787,2760,1389.010986,-1,304.6875
164426.328,327127.9688,-6.822262287,5.397965431,-4.244164944,-0.290076345,-0.427480906,-1.55725193,320.2869873,2759,1391.20874,-1,304.6875
164426.3298,327135.7813,-6.829443455,5.395571709,-4.248952866,-0.595419824,-0.366412222,-1.55725193,320.1331787,2760,1393.406616,-1,304.6875
164426.3325,327143.5938,-6.810293198,5.417115688,-4.236983776,-0.656488538,-0.625954211,-1.129770994,320.1331787,2760,1397.06958,-1,304.6875
164426.3411,327151.4063,-6.786355495,5.393177509,-4.263315201,-0.610687017,-0.381679386,-1.038167953,320.1331787,2760,1402.197754,-1,304.6875
164426.345,327159.2188,-6.800718307,5.421903133,-4.241771221,-0.381679386,-0.305343509,-1.145038128,320.2869873,2759,1406.593384,-1,304.6875
164426.354,327167.0313,-6.78156805,5.460203648,-4.270496845,-0.458015263,-0.320610672,-0.916030526,319.9795227,2761,1410.25647,-1,304.6875
164426.368,327174.8438,-6.81268692,5.448234558,-4.272890568,-0.351145029,0,-1.06870234,320.1331787,2760,1410.25647,-1,304.6875
164426.375,327182.6563,-6.807899475,5.431478024,-4.27528429,-0.748091578,-0.290076345,-1.129770994,320.1331787,2760,1410.25647,-1,304.6875
164426.3819,327190.4688,-6.779174328,5.385996342,-4.232196331,-0.900763333,-0.305343509,-0.946564913,320.1331787,2760,1409.523804,-1,304.6875
164426.3908,327198.2813,-6.80311203,5.374027729,-4.198683262,-1.221374035,-0.595419824,-1.374045849,319.9795227,2761,1409.523804,-1,304.6875
164426.3982,327206.0938,-6.80311203,5.402752876,-4.270496845,-1.160305381,-0.473282456,-0.854961812,319.9795227,2761,1407.32605,-1,304.6875
164426.4059,327213.9063,-6.82465601,5.441053391,-4.332735062,-0.656488538,-0.076335877,-0.885496199,319.9795227,2761,1405.86084,-1,304.6875
164426.4098,327221.7188,-6.860562325,5.457809925,-4.359066486,-0.595419824,0.030534351,-1.145038128,319.9795227,2761,1402.93042,-1,304.6875
164426.4209,327229.5313,-6.8342309,5.455415726,-4.30640316,-0.305343509,0.061068702,-1.480916023,319.8260193,2762,1400.732544,-1,304.6875
164426.4317,327237.3438,-6.805505753,5.385996342,-4.241771221,-0.076335877,0.106870227,-1.55725193,319.8260193,2762,1401.46521,-1,304.6875
164426.4334,327245.1563,-6.810293198,5.359664917,-4.251346588,0.381679386,0.015267176,-1.679389358,319.9795227,2761,1402.197754,-1,304.6875
164426.4448,327252.9688,-6.798324585,5.359664917,-4.337522507,0.564885497,0.061068702,-1.496183157,319.9795227,2761,1404.39563,-1,304.6875
164426.4536,327260.7813,-6.748054981,5.441053391,-4.315978527,0.045801528,0.061068702,-1.297709942,319.8260193,2762,1404.39563,-1,304.6875
164426.4621,327268.5938,-6.731298447,5.443447113,-4.272890568,-0.473282456,-0.030534351,-1.251908422,319.8260193,2762,1405.128174,-1,304.6875
164426.4636,327276.4063,-6.743267536,5.455415726,-4.220227242,-0.885496199,0.24427481,-1.755725145,319.6726685,2763,1405.86084,-1,304.6875
164426.4717,327284.2188,-6.791142941,5.443447113,-4.217833519,-0.778625965,0.274809152,-2.04580164,319.9795227,2761,1406.593384,-1,304.6875
164426.4856,327292.0313,-6.827049732,5.374027729,-4.220227242,-0.152671754,0.748091578,-1.893129826,319.6726685,2763,1404.39563,-1,304.6875
164426.4871,327299.8438,-6.822262287,5.388390064,-4.248952866,0.335877866,0.885496199,-1.297709942,319.8260193,2762,1402.93042,-1,304.6875
164426.4945,327307.6563,-6.839018345,5.397965431,-4.28725338,-0.290076345,0.427480906,-1.206106901,319.8260193,2762,1400,-1,304.6875
164426.4962,327315.4688,-6.795930386,5.409934044,-4.253740311,-0.656488538,-0.259541988,-0.320610672,319.8260193,2762,1397.06958,-1,218.75
164426.5097,327323.2813,-6.793536663,5.426690578,-4.241771221,-0.748091578,-0.290076345,-0.458015263,319.6726685,2763,1396.337036,-1,218.75
164426.5166,327331.0938,-6.731298447,5.455415726,-4.225015163,-0.793893158,-0.53435117,-0.687022924,319.6726685,2763,1396.337036,-1,218.75
164426.5267,327338.9063,-6.740873814,5.491322517,-4.244164944,-0.274809152,-0.458015263,-0.687022924,319.5194397,2764,1400,-1,218.75
164426.5396,327346.7188,-6.736086369,5.48414135,-4.265708923,0.106870227,-0.061068702,-1.06870234,319.6726685,2763,1404.39563,-1,218.75
164426.5408,327354.5313,-6.702573299,5.448234558,-4.253740311,-0.091603056,-0.061068702,-1.572519064,319.5194397,2764,1406.593384,-1,218.75
164426.5519,327362.3438,-6.692998409,5.450628281,-4.225015163,-0.366412222,0.48854962,-1.603053451,319.5194397,2764,1406.593384,-1,218.75
164426.5567,327370.1563,-6.707360744,5.407540321,-4.225015163,-0.671755731,0.320610672,-1.862595439,319.5194397,2764,1406.593384,-1,218.75
164426.5645,327377.9688,-6.719329834,5.409934044,-4.234590054,-1.038167953,0.366412222,-1.664122105,319.6726685,2763,1405.128174,-1,218.75
164426.5744,327385.7813,-6.755236149,5.393177509,-4.246559143,-0.97709924,-0.183206111,-1.648854971,319.3663635,2765,1402.93042,-1,218.75
164426.5757,327393.5938,-6.793536663,5.395571709,-4.277678013,-0.961832047,-0.183206111,-1.206106901,319.3663635,2765,1401.46521,-1,218.75
164426.5932,327401.4063,-6.798324585,5.383602619,-4.282465458,-0.366412222,-0.53435117,-1.221374035,319.3663635,2765,1403.662964,-1,218.75
164426.6016,327409.2188,-6.783961773,5.407540321,-4.260921478,-0.320610672,-0.641221344,-0.854961812,319.3663635,2765,1404.39563,-1,218.75
164426.6029,327417.0313,-6.767205238,5.412327766,-4.270496845,0.061068702,-0.381679386,-0.748091578,319.2134705,2766,1402.93042,-1,218.75
164426.6143,327424.8438,-6.764811516,5.443447113,-4.263315201,0.061068702,-0.183206111,-1.099236608,319.5194397,2764,1401.46521,-1,218.75
164426.6233,327432.6563,-6.769598961,5.445840836,-4.251346588,-0.015267176,-0.24427481,-1.038167953,319.3663635,2765,1400.732544,-1,218.75
164426.6314,327440.4688,-6.748054981,5.431478024,-4.265708923,-0.259541988,-0.305343509,-1.083969474,319.5194397,2764,1401.46521,-1,218.75
164426.6323,327448.2813,-6.750448704,5.443447113,-4.253740311,-0.381679386,-0.4427481,-0.946564913,319.2134705,2766,1403.662964,-1,218.75
164426.6493,327456.0938,-6.774386406,5.443447113,-4.246559143,-0.748091578,-0.106870227,-1.129770994,319.3663635,2765,1405.128174,-1,218.75
164426.657,327463.9063,-6.831837177,5.414721489,-4.359066486,-0.4427481,0.53435117,-0.946564913,319.3663635,2765,1409.523804,-1,218.75
164426.6642,327471.7188,-6.855774879,5.378815174,-4.361460209,-0.320610672,-0.305343509,-0.748091578,319.3663635,2765,1413.186768,-1,218.75
164426.6693,327479.5313,-6.815080643,5.364452362,-4.313584805,0.091603056,-0.656488538,-0.503816783,319.2134705,2766,1416.117188,-1,218.75
164426.6708,327487.3438,-6.853381157,5.424296856,-4.390185356,0.961832047,-0.213740453,-1.175572515,319.2134705,2766,1417.582397,-1,218.75
164426.6843,327495.1563,-6.805505753,5.445840836,-4.380610466,0.427480906,0,-0.824427485,319.2134705,2766,1417.582397,-1,218.75
164426.6941,327502.9688,-6.779174328,5.438659668,-4.311191082,-0.274809152,0.106870227,-0.473282456,319.2134705,2766,1416.849854,-1,218.75
164426.6954,327510.7813,-6.752842426,5.421903133,-4.323159695,-0.061068702,0.4427481,-1.297709942,319.2134705,2766,1413.919434,-1,218.75
164426.7043,327518.5938,-6.800718307,5.414721489,-4.332735062,0.106870227,0.793893158,-1.740458012,319.2134705,2766,1410.989014,-1,218.75
164426.7091,327526.4063,-6.800718307,5.378815174,-4.30640316,-0.045801528,0.763358772,-1.51145041,319.0606995,2767,1408.058594,-1,218.75
164426.7192,327534.2188,-6.80311203,5.33093977,-4.292040825,-0.015267176,0.641221344,-1.648854971,319.2134705,2766,1406.593384,-1,218.75
164426.7322,327542.0313,-6.81268692,5.347695827,-4.311191082,-0.076335877,0.824427485,-1.404580116,319.0606995,2767,1405.86084,-1,218.75
164426.7392,327549.8438,-6.817474365,5.374027729,-4.304009438,-0.351145029,0.061068702,-1.007633567,319.0606995,2767,1405.128174,-1,218.75
164426.7469,327557.6563,-6.771992683,5.414721489,-4.265708923,-0.732824445,0,-0.702290058,318.9080505,2768,1403.662964,-1,218.75
164426.752,327565.4688,-6.783961773,5.443447113,-4.260921478,-0.274809152,0.061068702,-0.671755731,318.9080505,2768,1402.93042,-1,218.75
164426.7662,327573.2813,-6.762417793,5.455415726,-4.258527756,0,-0.290076345,-0.595419824,318.9080505,2768,1401.46521,-1,218.75
164426.7677,327581.0938,-6.755236149,5.438659668,-4.256134033,-0.076335877,-0.366412222,-0.595419824,319.0606995,2767,1402.197754,-1,218.75
164426.778,327588.9063,-6.71214819,5.441053391,-4.251346588,-0.24427481,-0.24427481,-0.885496199,318.9080505,2768,1400.732544,-1,218.75
164426.7878,327596.7188,-6.726511002,5.417115688,-4.282465458,-0.564885497,-0.213740453,-1.02290082,319.0606995,2767,1399.267456,-1,218.75
164426.7891,327604.5313,-6.731298447,5.419509411,-4.282465458,-0.48854962,-0.167938933,-1.603053451,318.9080505,2768,1396.337036,-1,218.75
164426.7992,327612.3438,-6.764811516,5.383602619,-4.280071735,-0.48854962,0.122137405,-1.46564889,318.9080505,2768,1393.406616,-1,218.75
164426.8031,327620.1563,-6.791142941,5.369239807,-4.268103123,-0.503816783,0.167938933,-1.419847369,318.9080505,2768,1392.67395,-1,218.75
164426.8146,327627.9688,-6.800718307,5.354877472,-4.28725338,-0.091603056,-0.091603056,-1.312977076,318.9080505,2768,1391.20874,-1,218.75
164426.8268,327635.7813,-6.798324585,5.357271194,-4.330341339,0.183206111,0.137404576,-0.992366433,318.9080505,2768,1391.20874,-1,218.75
164426.8318,327643.5938,-6.78156805,5.366846085,-4.323159695,0.320610672,0.290076345,-0.931297719,318.9080505,2768,1390.476196,-1,218.75
164426.8404,327651.4063,-6.752842426,5.397965431,-4.342309952,0.335877866,0.702290058,-0.793893158,318.7555847,2769,1392.67395,-1,218.75
164426.8417,327659.2188,-6.726511002,5.393177509,-4.349491119,-0.076335877,0.641221344,-0.870229006,318.9080505,2768,1394.13916,-1,218.75
164426.853,327667.0313,-6.724117279,5.417115688,-4.325553417,-0.53435117,0.885496199,-0.839694679,318.7555847,2769,1393.406616,-1,218.75
164426.8677,327674.8438,-6.733692169,5.426690578,-4.313584805,-0.58015269,0.641221344,-1.328244328,318.7555847,2769,1394.13916,-1,218.75
164426.8692,327682.6563,-6.726511002,5.436265945,-4.30640316,-0.458015263,0.503816783,-1.129770994,318.603241,2770,1394.871826,-1,218.75
164426.8816,327690.4688,-6.743267536,5.457809925,-4.356672764,-0.4427481,0.473282456,-1.435114503,318.7555847,2769,1396.337036,-1,218.75
164426.8916,327698.2813,-6.757630348,5.469778538,-4.349491119,-0.19847329,0.167938933,-1.190839648,318.603241,2770,1394.871826,-1,218.75
164426.8969,327706.0938,-6.783961773,5.469778538,-4.335128784,-0.122137405,-0.045801528,-1.236641169,318.7555847,2769,1394.871826,-1,218.75
164426.9043,327713.9063,-6.771992683,5.453022003,-4.323159695,0.366412222,0.137404576,-1.11450386,318.603241,2770,1396.337036,-1,218.75
164426.9215,327721.7188,-6.788749218,5.424296856,-4.304009438,0.503816783,-0.381679386,-0.885496199,318.603241,2770,1397.06958,-1,218.75
164426.9302,327729.5313,-6.757630348,5.407540321,-4.304009438,0.412213743,-0.030534351,-0.793893158,318.603241,2770,1397.06958,-1,218.75
164426.932,327737.3438,-6.760024071,5.419509411,-4.320765972,0.671755731,0.045801528,-0.931297719,318.4510498,2771,1396.337036,-1,218.75
164426.9467,327745.1563,-6.743267536,5.412327766,-4.32794714,0.412213743,0.4427481,-0.778625965,318.4510498,2771,1395.60437,-1,218.75
164426.9481,327752.9688,-6.760024071,5.431478024,-4.349491119,0.19847329,0.503816783,-1.206106901,318.603241,2770,1394.13916,-1,218.75
164426.9595,327760.7813,-6.721723557,5.443447113,-4.349491119,-0.122137405,0.4427481,-1.206106901,318.4510498,2771,1391.20874,-1,218.75
164426.9682,327768.5938,-6.716936111,5.414721489,-4.344703674,-0.183206111,0.412213743,-1.297709942,318.4510498,2771,1390.476196,-1,218.75
164426.9744,327776.4063,-6.676241875,5.409934044,-4.342309952,-0.305343509,0.656488538,-1.51145041,318.4510498,2771,1391.941406,-1,218.75
164426.9864,327784.2188,-6.685816765,5.431478024,-4.337522507,-0.412213743,0.19847329,-1.603053451,318.603241,2770,1389.74353,-1,218.75
164426.9964,327792.0313,-6.707360744,5.433871746,-4.32794714,-0.152671754,0.366412222,-1.740458012,318.2990112,2772,1388.278442,-1,218.75
164427.0006,327799.8438,-6.726511002,5.414721489,-4.344703674,-0.076335877,0.122137405,-1.496183157,318.4510498,2771,1384.615356,-1,484.375
164427.0082,327807.6563,-6.757630348,5.414721489,-4.344703674,0.061068702,-0.320610672,-1.312977076,318.2990112,2772,1385.348022,-1,484.375
164427.0103,327815.4688,-6.743267536,5.407540321,-4.337522507,0.473282456,-0.427480906,-1.053435087,318.4510498,2771,1386.080566,-1,484.375
164427.0172,327823.2813,-6.752842426,5.388390064,-4.320765972,0.687022924,-0.274809152,-0.625954211,318.2990112,2772,1389.010986,-1,484.375
164427.0292,327831.0938,-6.752842426,5.369239807,-4.313584805,0.625954211,0.015267176,-0.595419824,318.2990112,2772,1389.74353,-1,484.375
164427.0392,327838.9063,-6.745661259,5.393177509,-4.320765972,0.992366433,0.076335877,-0.610687017,318.2990112,2772,1391.20874,-1,484.375
164427.0405,327846.7188,-6.721723557,5.378815174,-4.31837225,0.595419824,0.229007632,-0.717557251,318.4510498,2771,1390.476196,-1,484.375
164427.0505,327854.5313,-6.697785854,5.390783787,-4.337522507,-0.015267176,0.152671754,-1.053435087,318.2990112,2772,1391.941406,-1,484.375
164427.062,327862.3438,-6.702573299,5.388390064,-4.335128784,0.030534351,-0.030534351,-0.97709924,318.2990112,2772,1393.406616,-1,484.375
164427.0633,327870.1563,-6.688210487,5.421903133,-4.366247654,-0.53435117,-0.396946579,-1.221374035,318.2990112,2772,1395.60437,-1,484.375
164427.0791,327877.9688,-6.716936111,5.438659668,-4.349491119,-0.48854962,-0.671755731,-1.55725193,318.2990112,2772,1400,-1,484.375
164427.0931,327885.7813,-6.71214819,5.455415726,-4.351885319,-0.53435117,-0.335877866,-1.618320584,318.1471252,2773,1402.93042,-1,484.375
164427.104,327893.5938,-6.726511002,5.436265945,-4.351885319,-0.549618304,0.030534351,-1.633587837,318.2990112,2772,1403.662964,-1,484.375
164427.1053,327901.4063,-6.748054981,5.443447113,-4.41891098,-0.076335877,-0.045801528,-1.51145041,318.2990112,2772,1404.39563,-1,484.375
164427.1178,327909.2188,-6.750448704,5.429084301,-4.390185356,0.091603056,0.320610672,-1.374045849,318.2990112,2772,1405.86084,-1,484.375
164427.126,327917.0313,-6.740873814,5.421903133,-4.366247654,0.229007632,0.671755731,-1.480916023,318.1471252,2773,1408.058594,-1,484.375
164427.1341,327924.8438,-6.757630348,5.414721489,-4.385397911,0.167938933,0.595419824,-1.328244328,318.1471252,2773,1408.058594,-1,484.375
164427.1447,327932.6563,-6.748054981,5.388390064,-4.380610466,0.427480906,0.809160292,-1.541984677,318.2990112,2772,1410.25647,-1,484.375
164427.1548,327940.4688,-6.762417793,5.402752876,-4.404548168,0.671755731,0.595419824,-1.46564889,318.1471252,2773,1411.721558,-1,484.375
164427.1647,327948.2813,-6.743267536,5.378815174,-4.44045496,0.396946579,0.763358772,-1.282442689,317.9953613,2774,1412.454224,-1,484.375
164427.173,327956.0938,-6.726511002,5.385996342,-4.406941891,0.290076345,0.229007632,-1.236641169,318.1471252,2773,1412.454224,-1,484.375
164427.1748,327963.9063,-6.704967022,5.37163353,-4.363853931,0.290076345,0.229007632,-1.496183157,317.9953613,2774,1411.721558,-1,484.375
164427.1847,327971.7188,-6.721723557,5.366846085,-4.426092148,0.290076345,0.427480906,-1.496183157,318.1471252,2773,1410.25647,-1,484.375
164427.1916,327979.5313,-6.666666508,5.381208897,-4.433273315,0.519083977,0.4427481,-1.251908422,317.9953613,2774,1408.79126,-1,484.375
164427.2006,327987.3438,-6.704967022,5.409934044,-4.392579079,0.458015263,-0.19847329,-1.51145041,317.9953613,2774,1408.058594,-1,484.375
164427.2095,327995.1563,-6.683423042,5.431478024,-4.394973278,-0.091603056,0.335877866,-1.923664093,317.9953613,2774,1408.79126,-1,484.375
164427.211,328002.9688,-6.697785854,5.366846085,-4.375823021,-0.045801528,0.122137405,-2.061068773,317.9953613,2774,1410.989014,-1,484.375
164427.2129,328010.7813,-6.721723557,5.354877472,-4.406941891,0.366412222,0.152671754,-2.198473215,317.84375,2775,1412.454224,-1,484.375
164427.2147,328018.5938,-6.786355495,5.354877472,-4.447636127,0.854961812,0.076335877,-2.076335907,317.9953613,2774,1411.721558,-1,484.375
164427.2245,328026.4063,-6.736086369,5.374027729,-4.47157383,0.839694679,-0.351145029,-2.198473215,317.84375,2775,1409.523804,-1,484.375
164427.2317,328034.2188,-6.719329834,5.385996342,-4.433273315,0.152671754,-0.473282456,-1.832061052,317.6922913,2776,1406.593384,-1,484.375
164427.2376,328042.0313,-6.700179577,5.383602619,-4.366247654,-0.030534351,-0.305343509,-1.893129826,317.6922913,2776,1403.662964,-1,484.375
164427.24,328049.8438,-6.695392132,5.369239807,-4.356672764,-0.152671754,-0.213740453,-1.95419848,317.84375,2775,1403.662964,-1,484.375
164427.25,328057.6563,-6.771992683,5.321364403,-4.366247654,0.229007632,-0.351145029,-1.816793919,317.84375,2775,1403.662964,-1,484.375
164427.2581,328065.4688,-6.767205238,5.32854557,-4.375823021,0.229007632,-0.274809152,-1.404580116,317.84375,2775,1402.93042,-1,484.375
164427.2656,328073.2813,-6.726511002,5.333333492,-4.390185356,-0.061068702,-0.717557251,-0.839694679,317.6922913,2776,1400.732544,-1,484.375
164427.2705,328081.0938,-6.69060421,5.381208897,-4.394973278,-0.305343509,-1.389312983,-0.687022924,317.6922913,2776,1401.46521,-1,484.375
164427.2859,328088.9063,-6.67145443,5.390783787,-4.373429298,-0.793893158,-1.083969474,-0.839694679,317.6922913,2776,1400,-1,484.375
164427.2905,328096.7188,-6.654697895,5.455415726,-4.392579079,-0.748091578,-1.282442689,-1.099236608,317.84375,2775,1397.802246,-1,484.375
164427.2985,328104.5313,-6.66906023,5.464991093,-4.392579079,-0.854961812,-1.496183157,-1.038167953,317.5409546,2777,1397.06958,-1,484.375
164427.3043,328112.3438,-6.678635597,5.448234558,-4.373429298,-0.870229006,-1.435114503,-1.541984677,317.5409546,2777,1394.13916,-1,484.375
164427.3188,328120.1563,-6.666666508,5.405146599,-4.368641376,-0.732824445,-1.083969474,-1.450381637,317.5409546,2777,1391.20874,-1,484.375
164427.3282,328127.9688,-6.68102932,5.397965431,-4.409335613,-0.870229006,-0.763358772,-1.740458012,317.6922913,2776,1390.476196,-1,484.375
164427.3303,328135.7813,-6.683423042,5.364452362,-4.416517258,-0.961832047,-0.53435117,-1.312977076,317.5409546,2777,1391.941406,-1,484.375
164427.3439,328143.5938,-6.678635597,5.35008955,-4.430879593,-1.038167953,-0.824427485,-1.603053451,317.5409546,2777,1392.67395,-1,484.375
164427.348,328151.4063,-6.704967022,5.338120937,-4.406941891,-1.06870234,-0.549618304,-1.358778596,317.5409546,2777,1394.13916,-1,484.375
164427.3533,328159.2188,-6.728904724,5.345302105,-4.368641376,-1.282442689,-1.099236608,-1.129770994,317.6922913,2776,1393.406616,-1,484.375
164427.3545,328167.0313,-6.726511002,5.354877472,-4.356672764,-1.297709942,-0.961832047,-0.961832047,317.389801,2778,1394.13916,-1,484.375
164427.3728,328174.8438,-6.724117279,5.385996342,-4.387791634,-1.419847369,-1.053435087,-0.931297719,317.5409546,2777,1393.406616,-1,484.375
164427.3835,328182.6563,-6.721723557,5.369239807,-4.383004189,-0.931297719,-1.404580116,-0.931297719,317.389801,2778,1394.13916,-1,484.375
164427.3839,328190.4688,-6.709754467,5.405146599,-4.399760723,-1.099236608,-1.282442689,-0.885496199,317.389801,2778,1393.406616,-1,484.375
164427.3946,328198.2813,-6.704967022,5.412327766,-4.397367001,-0.946564913,-1.374045849,-1.06870234,317.389801,2778,1394.871826,-1,484.375
164427.3952,328206.0938,-6.685816765,5.426690578,-4.411729336,-1.190839648,-1.786259532,-0.885496199,317.389801,2778,1397.802246,-1,484.375
164427.4057,328213.9063,-6.700179577,5.443447113,-4.394973278,-1.389312983,-1.862595439,-1.328244328,317.389801,2778,1400.732544,-1,484.375
164427.4064,328221.7188,-6.738480091,5.424296856,-4.390185356,-1.526717544,-1.343511462,-1.251908422,317.389801,2778,1402.197754,-1,484.375
164427.4139,328229.5313,-6.764811516,5.405146599,-4.493117809,-1.053435087,-0.916030526,-1.267175555,317.238739,2779,1402.93042,-1,484.375
164427.4216,328237.3438,-6.78156805,5.383602619,-4.452423573,-1.190839648,-1.801526666,-1.053435087,317.389801,2778,1405.86084,-1,484.375
164427.4327,328245.1563,-6.745661259,5.352483749,-4.45002985,-0.366412222,-1.786259532,-1.206106901,317.389801,2778,1406.593384,-1,484.375
164427.4425,328252.9688,-6.779174328,5.390783787,-4.557749748,-0.061068702,-1.633587837,-1.282442689,317.389801,2778,1408.058594,-1,484.375
164427.4478,328260.7813,-6.736086369,5.460203648,-4.476361275,-0.809160292,-1.51145041,-1.007633567,317.0878601,2780,1408.058594,-1,484.375
164427.4577,328268.5938,-6.666666508,5.429084301,-4.332735062,-1.450381637,-1.312977076,-0.595419824,317.389801,2778,1407.32605,-1,484.375
164427.4595,328276.4063,-6.640335083,5.405146599,-4.351885319,-1.450381637,-1.160305381,-1.786259532,317.238739,2779,1405.128174,-1,484.375
164427.4705,328284.2188,-6.721723557,5.393177509,-4.359066486,-1.679389358,-1.099236608,-2.351145029,317.238739,2779,1402.197754,-1,484.375
164427.4845,328292.0313,-6.760024071,5.357271194,-4.356672764,-1.648854971,-1.099236608,-2.44274807,317.0878601,2780,1400.732544,-1,484.375
164427.4851,328299.8438,-6.757630348,5.321364403,-4.404548168,-1.358778596,-1.343511462,-2.091603041,317.238739,2779,1400,-1,484.375
164427.513,328307.6563,-6.740873814,5.316576958,-4.466786385,-1.160305381,-1.236641169,-1.51145041,317.0878601,2780,1400.732544,-1,484.375
164427.514,328315.4688,-6.745661259,5.357271194,-4.421304703,-1.801526666,-1.572519064,-1.435114503,317.238739,2779,1402.93042,-1,515.625
164427.5164,328323.2813,-6.724117279,5.400359154,-4.371035099,-1.389312983,-1.801526666,-1.358778596,317.0878601,2780,1405.128174,-1,515.625
164427.517,328331.0938,-6.724117279,5.409934044,-4.354279041,-1.312977076,-1.450381637,-1.343511462,317.0878601,2780,1405.86084,-1,515.625
164427.5265,328338.9063,-6.673848152,5.388390064,-4.325553417,-0.778625965,-2.04580164,-1.083969474,317.238739,2779,1407.32605,-1,515.625
164427.5405,328346.7188,-6.692998409,5.409934044,-4.32794714,-0.992366433,-2.274809122,-0.900763333,316.7865295,2782,1408.058594,-1,515.625
164427.5412,328354.5313,-6.68102932,5.436265945,-4.335128784,-1.267175555,-2.366412163,-1.206106901,317.0878601,2780,1408.79126,-1,515.625
164427.5619,328362.3438,-6.709754467,5.441053391,-4.347097397,-1.46564889,-2.13740468,-1.786259532,317.0878601,2780,1408.79126,-1,515.625
164427.5641,328370.1563,-6.692998409,5.443447113,-4.335128784,-1.664122105,-1.251908422,-1.740458012,317.0878601,2780,1409.523804,-1,515.625
164427.599,328377.9688,-6.726511002,5.407540321,-4.325553417,-1.145038128,-0.946564913,-1.969465613,317.0878601,2780,1410.989014,-1,515.625
164427.6005,328385.7813,-6.733692169,5.395571709,-4.335128784,-1.297709942,-0.885496199,-1.618320584,316.9371338,2781,1411.721558,-1,515.625
164427.6079,328393.5938,-6.743267536,5.366846085,-4.30640316,-0.885496199,-0.702290058,-1.648854971,316.9371338,2781,1410.989014,-1,515.625
164427.6094,328401.4063,-6.740873814,5.390783787,-4.378216743,-1.007633567,-0.748091578,-1.46564889,316.9371338,2781,1412.454224,-1,515.625
164427.6107,328409.2188,-6.736086369,5.402752876,-4.394973278,-0.97709924,-0.992366433,-1.496183157,316.9371338,2781,1413.186768,-1,515.625
164427.6117,328417.0313,-6.709754467,5.407540321,-4.394973278,-0.992366433,-0.870229006,-1.541984677,316.7865295,2782,1413.919434,-1,515.625
164427.6248,328424.8438,-6.700179577,5.390783787,-4.41891098,-1.312977076,-1.450381637,-1.389312983,316.7865295,2782,1412.454224,-1,515.625
164427.6255,328432.6563,-6.683423042,5.402752876,-4.411729336,-1.572519064,-1.404580116,-1.694656491,316.9371338,2781,1411.721558,-1,515.625
164427.6341,328440.4688,-6.676241875,5.407540321,-4.411729336,-1.740458012,-1.587786317,-1.450381637,316.7865295,2782,1411.721558,-1,515.625
164427.6396,328448.2813,-6.69060421,5.433871746,-4.411729336,-1.847328186,-1.908396959,-1.541984677,316.7865295,2782,1412.454224,-1,515.625
164427.6652,328456.0938,-6.719329834,5.438659668,-4.378216743,-1.908396959,-1.816793919,-1.969465613,316.7865295,2782,1412.454224,-1,515.625
164427.6659,328463.9063,-6.728904724,5.436265945,-4.363853931,-1.908396959,-2,-1.938931346,316.7865295,2782,1410.989014,-1,515.625
164427.6666,328471.7188,-6.740873814,5.412327766,-4.390185356,-1.541984677,-1.938931346,-1.770992398,316.7865295,2782,1408.79126,-1,515.625
164427.6759,328479.5313,-6.731298447,5.438659668,-4.378216743,-1.603053451,-1.587786317,-1.801526666,316.6360474,2783,1405.86084,-1,515.625
164427.6765,328487.3438,-6.764811516,5.405146599,-4.373429298,-1.450381637,-1.694656491,-1.770992398,316.6360474,2783,1402.93042,-1,515.625
164427.6826,328495.1563,-6.750448704,5.419509411,-4.361460209,-1.236641169,-1.770992398,-1.786259532,316.6360474,2783,1402.197754,-1,515.625
164427.6932,328502.9688,-6.736086369,5.421903133,-4.351885319,-0.931297719,-1.145038128,-1.526717544,316.6360474,2783,1402.93042,-1,515.625
164427.694,328510.7813,-6.767205238,5.417115688,-4.371035099,-1.389312983,-1.282442689,-1.328244328,316.4857483,2784,1402.197754,-1,515.625
164427.7057,328518.5938,-6.764811516,5.405146599,-4.383004189,-1.221374035,-1.06870234,-1.312977076,316.6360474,2783,1402.197754,-1,515.625
164427.7177,328526.4063,-6.769598961,5.397965431,-4.363853931,-1.129770994,-0.97709924,-1.206106901,316.6360474,2783,1399.267456,-1,515.625
164427.7183,328534.2188,-6.743267536,5.402752876,-4.361460209,-0.916030526,-1.206106901,-1.358778596,316.6360474,2783,1396.337036,-1,515.625
164427.7306,328542.0313,-6.736086369,5.395571709,-4.339916229,-1.007633567,-1.297709942,-1.282442689,316.4857483,2784,1394.871826,-1,515.625
164427.7312,328549.8438,-6.714542389,5.393177509,-4.347097397,-1.206106901,-1.343511462,-0.946564913,316.6360474,2783,1392.67395,-1,515.625
164427.7458,328557.6563,-6.714542389,5.374027729,-4.332735062,-1.053435087,-1.587786317,-1.02290082,316.4857483,2784,1391.941406,-1,515.625
164427.7551,328565.4688,-6.716936111,5.409934044,-4.354279041,-1.404580116,-1.694656491,-1.099236608,316.3355713,2785,1390.476196,-1,515.625
164427.763,328573.2813,-6.716936111,5.397965431,-4.342309952,-1.374045849,-1.862595439,-1.450381637,316.4857483,2784,1386.813232,-1,515.625
164427.7644,328581.0938,-6.721723557,5.397965431,-4.330341339,-1.51145041,-1.526717544,-1.343511462,316.4857483,2784,1386.080566,-1,515.625
164427.7748,328588.9063,-6.736086369,5.395571709,-4.339916229,-1.312977076,-1.480916023,-1.251908422,316.3355713,2785,1389.010986,-1,515.625
164427.7864,328596.7188,-6.755236149,5.409934044,-4.32794714,-1.06870234,-1.419847369,-1.312977076,316.3355713,2785,1393.406616,-1,515.625
164427.7953,328604.5313,-6.738480091,5.397965431,-4.337522507,-0.946564913,-1.007633567,-1.389312983,316.3355713,2785,1397.802246,-1,515.625
164427.8006,328612.3438,-6.752842426,5.414721489,-4.323159695,-0.625954211,-0.885496199,-0.778625965,316.3355713,2785,1402.197754,-1,515.625
164427.8065,328620.1563,-6.721723557,5.414721489,-4.332735062,-0.702290058,-0.748091578,-0.870229006,316.4857483,2784,1405.86084,-1,515.625
164427.8163,328627.9688,-6.743267536,5.412327766,-4.330341339,-0.625954211,-0.839694679,-0.763358772,316.3355713,2785,1408.79126,-1,515.625
164427.8273,328635.7813,-6.697785854,5.433871746,-4.351885319,-0.335877866,-1.129770994,-0.916030526,316.3355713,2785,1413.186768,-1,515.625
164427.8282,328643.5938,-6.714542389,5.448234558,-4.354279041,-0.900763333,-1.129770994,-1.11450386,316.3355713,2785,1416.849854,-1,515.625
164427.8419,328651.4063,-6.731298447,5.457809925,-4.351885319,-0.839694679,-1.328244328,-1.236641169,316.1855469,2786,1420.512817,-1,515.625
164427.85,328659.2188,-6.750448704,5.467384815,-4.380610466,-1.02290082,-0.732824445,-1.038167953,316.3355713,2785,1421.978027,-1,515.625
164427.852,328667.0313,-6.764811516,5.464991093,-4.390185356,-1.11450386,-0.916030526,-1.358778596,316.1855469,2786,1421.245361,-1,515.625
164427.8641,328674.8438,-6.724117279,5.407540321,-4.368641376,-0.992366433,-1.206106901,-1.404580116,316.3355713,2785,1418.315063,-1,515.625
164427.8764,328682.6563,-6.688210487,5.383602619,-4.330341339,-1.083969474,-1.282442689,-1.496183157,316.3355713,2785,1415.384644,-1,515.625
164427.8859,328690.4688,-6.692998409,5.364452362,-4.354279041,-0.625954211,-1.007633567,-1.496183157,316.3355713,2785,1410.25647,-1,515.625
164427.8921,328698.2813,-6.748054981,5.433871746,-4.421304703,-0.809160292,-1.297709942,-1.587786317,316.1855469,2786,1406.593384,-1,515.625
164427.8929,328706.0938,-6.748054981,5.46259737,-4.423698425,-0.519083977,-1.236641169,-1.46564889,316.3355713,2785,1402.197754,-1,515.625
164427.9066,328713.9063,-6.757630348,5.47217226,-4.385397911,-0.854961812,-1.297709942,-1.343511462,316.1855469,2786,1398.53479,-1,515.625
164427.9139,328721.7188,-6.707360744,5.436265945,-4.349491119,-0.503816783,-1.06870234,-1.587786317,316.1855469,2786,1397.802246,-1,515.625
164427.9249,328729.5313,-6.700179577,5.369239807,-4.351885319,-0.030534351,-1.053435087,-1.633587837,316.0356445,2787,1398.53479,-1,515.625
164427.9318,328737.3438,-6.738480091,5.36205864,-4.383004189,-0.152671754,-1.282442689,-1.648854971,316.1855469,2786,1398.53479,-1,515.625
164427.9323,328745.1563,-6.731298447,5.385996342,-4.435667038,-0.641221344,-1.251908422,-1.709923625,316.0356445,2787,1398.53479,-1,515.625
164427.9478,328752.9688,-6.673848152,5.438659668,-4.404548168,-1.145038128,-1.328244328,-1.480916023,316.1855469,2786,1397.802246,-1,515.625
164427.9539,328760.7813,-6.661879063,5.433871746,-4.361460209,-1.358778596,-1.374045849,-2.183206081,315.8858948,2788,1401.46521,-1,515.625
164427.962,328768.5938,-6.709754467,5.359664917,-4.347097397,-1.02290082,-1.206106901,-2.44274807,315.7362976,2789,1401.46521,-1,515.625
164427.9667,328776.4063,-6.750448704,5.342908382,-4.342309952,-0.671755731,-0.97709924,-2.610687017,316.0356445,2787,1402.93042,-1,515.625
164427.9749,328784.2188,-6.831837177,5.297426701,-4.325553417,-0.595419824,-0.53435117,-2.320610762,315.8858948,2788,1405.86084,-1,515.625
164427.988,328792.0313,-6.848593712,5.31897068,-4.363853931,-0.610687017,-1.038167953,-1.328244328,316.0356445,2787,1408.79126,-1,515.625
164427.9892,328799.8438,-6.82465601,5.326151848,-4.361460209,-0.946564913,-1.206106901,-0.931297719,316.0356445,2787,1408.058594,-1,484.375
164427.9974,328807.6563,-6.769598961,5.366846085,-4.323159695,-1.450381637,-1.709923625,-0.305343509,315.8858948,2788,1408.058594,-1,484.375
164427.9997,328815.4688,-6.731298447,5.412327766,-4.323159695,-1.770992398,-2.030534267,0.167938933,316.0356445,2787,1406.593384,-1,484.375
164428.01,328823.2813,-6.666666508,5.498503685,-4.30640316,-1.95419848,-1.816793919,-0.213740453,315.8858948,2788,1408.058594,-1,484.375
164428.0174,328831.0938,-6.640335083,5.539197922,-4.32794714,-1.633587837,-1.541984677,-0.58015269,315.8858948,2788,1408.79126,-1,484.375
164428.0239,328838.9063,-6.62836647,5.546379566,-4.323159695,-1.725190878,-1.190839648,-1.190839648,315.8858948,2788,1408.79126,-1,484.375
164428.0413,328846.7188,-6.623578548,5.536804199,-4.332735062,-1.984732866,-1.374045849,-1.770992398,315.8858948,2788,1407.32605,-1,484.375
164428.0521,328854.5313,-6.657091618,5.510472775,-4.325553417,-1.526717544,-1.282442689,-2.152671814,315.7362976,2789,1406.593384,-1,484.375
164428.0588,328862.3438,-6.688210487,5.455415726,-4.32794714,-0.992366433,-1.55725193,-2.473282337,315.7362976,2789,1404.39563,-1,484.375
164428.0651,328870.1563,-6.707360744,5.393177509,-4.323159695,-1.11450386,-1.725190878,-2.458015203,315.7362976,2789,1402.93042,-1,484.375
164428.0659,328877.9688,-6.738480091,5.342908382,-4.29682827,-0.503816783,-2.13740468,-2.213740349,315.8858948,2788,1402.197754,-1,484.375
164428.0799,328885.7813,-6.779174328,5.359664917,-4.315978527,-0.687022924,-1.770992398,-1.343511462,315.5868225,2790,1405.86084,-1,484.375
164428.0805,328893.5938,-6.779174328,5.369239807,-4.337522507,-0.793893158,-2.152671814,-0.916030526,315.7362976,2789,1410.25647,-1,484.375
164428.0825,328901.4063,-6.786355495,5.400359154,-4.330341339,-0.97709924,-1.770992398,-0.687022924,315.5868225,2790,1416.849854,-1,484.375
164428.0953,328909.2188,-6.78156805,5.395571709,-4.337522507,-1.389312983,-1.755725145,-0.381679386,315.8858948,2788,1420.512817,-1,484.375
164428.1049,328917.0313,-6.748054981,5.426690578,-4.323159695,-1.129770994,-1.832061052,-0.458015263,315.5868225,2790,1424.175781,-1,484.375
164428.1163,328924.8438,-6.719329834,5.450628281,-4.315978527,-1.694656491,-1.709923625,-0.473282456,315.5868225,2790,1424.908447,-1,484.375
164428.1166,328932.6563,-6.716936111,5.476959705,-4.289647102,-1.480916023,-1.603053451,-0.763358772,315.5868225,2790,1427.106201,-1,484.375
164428.1275,328940.4688,-6.726511002,5.47217226,-4.28725338,-1.587786317,-1.160305381,-0.809160292,315.7362976,2789,1425.640991,-1,484.375
164428.1333,328948.2813,-6.724117279,5.457809925,-4.29682827,-1.664122105,-0.58015269,-0.900763333,315.5868225,2790,1423.443237,-1,484.375
164428.1427,328956.0938,-6.798324585,5.467384815,-4.399760723,-1.282442689,-0.381679386,-0.885496199,315.5868225,2790,1417.582397,-1,484.375
164428.1566,328963.9063,-6.791142941,5.433871746,-4.406941891,-1.694656491,-1.816793919,-1.236641169,315.5868225,2790,1410.25647,-1,484.375
164428.163,328971.7188,-6.738480091,5.405146599,-4.349491119,-0.793893158,-1.908396959,-1.02290082,315.5868225,2790,1400,-1,484.375
164428.1692,328979.5313,-6.743267536,5.48414135,-4.476361275,-0.137404576,-1.770992398,-1.06870234,315.4375,2791,1391.941406,-1,484.375
164428.1764,328987.3438,-6.697785854,5.464991093,-4.421304703,-1.419847369,-2.076335907,-1.038167953,315.5868225,2790,1384.615356,-1,484.375
164428.1831,328995.1563,-6.695392132,5.455415726,-4.31837225,-1.862595439,-1.740458012,-1.145038128,315.4375,2791,1380.952393,-1,484.375
164428.1943,329002.9688,-6.685816765,5.453022003,-4.332735062,-1.633587837,-1.709923625,-1.984732866,315.1392822,2793,1380.219727,-1,484.375
164428.2067,329010.7813,-6.731298447,5.429084301,-4.380610466,-1.755725145,-1.435114503,-2.259541988,315.4375,2791,1381.684937,-1,484.375
164428.2193,329018.5938,-6.762417793,5.34051466,-4.289647102,-1.328244328,-1.282442689,-2.167938948,315.2883301,2792,1382.417603,-1,484.375
164428.2215,329026.4063,-6.807899475,5.316576958,-4.320765972,-0.48854962,-1.02290082,-1.587786317,315.2883301,2792,1380.952393,-1,484.375
164428.23,329034.2188,-6.822262287,5.357271194,-4.339916229,-0.839694679,-1.02290082,-1.572519064,315.4375,2791,1381.684937,-1,484.375
164428.232,329042.0313,-6.807899475,5.359664917,-4.325553417,-0.854961812,-1.51145041,-0.97709924,315.4375,2791,1381.684937,-1,484.375
164428.246,329049.8438,-6.757630348,5.417115688,-4.280071735,-0.870229006,-1.282442689,-1.129770994,315.2883301,2792,1381.684937,-1,484.375
164428.2585,329057.6563,-6.755236149,5.426690578,-4.256134033,-0.671755731,-1.46564889,-1.145038128,315.2883301,2792,1381.684937,-1,257.8125
164428.2611,329065.4688,-6.757630348,5.457809925,-4.28725338,-0.641221344,-1.343511462,-1.11450386,315.1392822,2793,1382.417603,-1,257.8125
164428.2678,329073.2813,-6.721723557,5.438659668,-4.272890568,-1.06870234,-1.450381637,-1.11450386,315.2883301,2792,1384.615356,-1,257.8125
164428.2751,329081.0938,-6.692998409,5.455415726,-4.289647102,-1.419847369,-1.46564889,-1.404580116,315.1392822,2793,1387.545776,-1,257.8125
164428.2819,329088.9063,-6.702573299,5.443447113,-4.258527756,-1.55725193,-1.282442689,-1.877862573,315.1392822,2793,1391.20874,-1,257.8125
164428.2913,329096.7188,-6.738480091,5.429084301,-4.265708923,-1.46564889,-1.572519064,-1.938931346,315.2883301,2792,1394.13916,-1,257.8125
164428.2932,329104.5313,-6.743267536,5.424296856,-4.270496845,-1.618320584,-1.587786317,-1.694656491,315.1392822,2793,1399.267456,-1,257.8125
164428.303,329112.3438,-6.757630348,5.419509411,-4.292040825,-1.404580116,-1.664122105,-1.832061052,315.1392822,2793,1402.93042,-1,257.8125
164428.3149,329120.1563,-6.771992683,5.409934044,-4.325553417,-0.809160292,-1.572519064,-1.46564889,315.1392822,2793,1406.593384,-1,257.8125
164428.3156,329127.9688,-6.779174328,5.409934044,-4.313584805,-0.610687017,-1.419847369,-1.740458012,315.1392822,2793,1409.523804,-1,257.8125
164428.3284,329135.7813,-6.771992683,5.395571709,-4.308797359,-0.335877866,-0.900763333,-1.328244328,314.990387,2794,1411.721558,-1,257.8125
164428.3308,329143.5938,-6.733692169,5.402752876,-4.301615715,-0.473282456,-0.839694679,-1.343511462,315.1392822,2793,1411.721558,-1,257.8125
164428.3413,329151.4063,-6.740873814,5.400359154,-4.311191082,-0.549618304,-0.839694679,-1.51145041,315.1392822,2793,1411.721558,-1,257.8125
164428.3572,329159.2188,-6.745661259,5.395571709,-4.320765972,-0.961832047,-0.854961812,-1.435114503,314.990387,2794,1412.454224,-1,257.8125
164428.3642,329167.0313,-6.752842426,5.414721489,-4.349491119,-1.358778596,-1.11450386,-1.389312983,314.990387,2794,1414.651978,-1,257.8125
164428.3755,329174.8438,-6.748054981,5.429084301,-4.337522507,-1.099236608,-1.312977076,-1.312977076,315.1392822,2793,1417.582397,-1,257.8125
164428.3836,329182.6563,-6.757630348,5.426690578,-4.32794714,-1.328244328,-1.404580116,-1.633587837,314.990387,2794,1418.315063,-1,257.8125
164428.3928,329190.4688,-6.762417793,5.443447113,-4.311191082,-1.083969474,-1.236641169,-1.190839648,314.990387,2794,1418.315063,-1,257.8125
164428.3935,329198.2813,-6.755236149,5.448234558,-4.313584805,-0.58015269,-1.389312983,-1.160305381,314.990387,2794,1416.849854,-1,257.8125
164428.4076,329206.0938,-6.771992683,5.448234558,-4.301615715,-0.763358772,-1.480916023,-1.083969474,314.990387,2794,1416.849854,-1,257.8125
164428.418,329213.9063,-6.726511002,5.457809925,-4.28485918,-0.610687017,-1.55725193,-1.297709942,314.990387,2794,1414.651978,-1,257.8125
164428.4251,329221.7188,-6.714542389,5.453022003,-4.277678013,-0.732824445,-1.832061052,-1.312977076,314.990387,2794,1414.651978,-1,257.8125
164428.4332,329229.5313,-6.709754467,5.455415726,-4.308797359,-1.083969474,-1.969465613,-1.587786317,314.990387,2794,1411.721558,-1,257.8125
164428.4338,329237.3438,-6.736086369,5.450628281,-4.304009438,-0.97709924,-1.55725193,-1.435114503,314.990387,2794,1408.79126,-1,257.8125
164428.4466,329245.1563,-6.743267536,5.460203648,-4.315978527,-0.885496199,-1.297709942,-1.847328186,314.8416443,2795,1402.93042,-1,257.8125
164428.4585,329252.9688,-6.738480091,5.433871746,-4.337522507,-0.961832047,-1.11450386,-1.603053451,314.6930237,2796,1400,-1,257.8125
164428.459,329260.7813,-6.764811516,5.426690578,-4.337522507,-0.854961812,-1.603053451,-1.389312983,314.6930237,2796,1398.53479,-1,257.8125
164428.4714,329268.5938,-6.752842426,5.397965431,-4.320765972,-0.870229006,-1.633587837,-1.46564889,314.6930237,2796,1399.267456,-1,257.8125
164428.4807,329276.4063,-6.743267536,5.393177509,-4.294434547,-0.763358772,-1.969465613,-1.206106901,314.8416443,2795,1399.267456,-1,257.8125
164428.4857,329284.2188,-6.769598961,5.369239807,-4.299221992,-0.916030526,-2.091603041,-1.06870234,314.8416443,2795,1400.732544,-1,257.8125
164428.4938,329292.0313,-6.774386406,5.426690578,-4.29682827,-1.145038128,-1.893129826,-0.900763333,314.6930237,2796,1402.93042,-1,257.8125
164428.5008,329299.8438,-6.779174328,5.424296856,-4.315978527,-0.992366433,-1.480916023,-0.900763333,314.8416443,2795,1402.93042,-1,257.8125
164428.5151,329307.6563,-6.762417793,5.448234558,-4.282465458,-1.053435087,-1.175572515,-0.809160292,314.6930237,2796,1402.93042,-1,257.8125
164428.5205,329315.4688,-6.731298447,5.445840836,-4.248952866,-1.358778596,-0.916030526,-0.97709924,314.6930237,2796,1401.46521,-1,257.8125
164428.5258,329323.2813,-6.721723557,5.448234558,-4.258527756,-1.267175555,-0.702290058,-1.160305381,314.6930237,2796,1400,-1,257.8125
164428.5361,329331.0938,-6.755236149,5.438659668,-4.30640316,-1.221374035,-0.824427485,-1.51145041,314.5445251,2797,1397.802246,-1,257.8125
164428.5427,329338.9063,-6.740873814,5.436265945,-4.29682827,-1.221374035,-0.732824445,-1.725190878,314.5445251,2797,1397.06958,-1,257.8125
164428.5545,329346.7188,-6.760024071,5.448234558,-4.332735062,-0.992366433,-1.083969474,-1.404580116,314.3962097,2798,1398.53479,-1,257.8125
164428.5597,329354.5313,-6.771992683,5.431478024,-4.301615715,-0.961832047,-1.389312983,-1.282442689,314.5445251,2797,1397.06958,-1,257.8125
164428.5698,329362.3438,-6.791142941,5.429084301,-4.27528429,-0.473282456,-1.526717544,-1.312977076,314.5445251,2797,1400,-1,257.8125
164428.5748,329370.1563,-6.760024071,5.441053391,-4.256134033,-0.473282456,-1.419847369,-1.328244328,314.5445251,2797,1402.197754,-1,257.8125
164428.5899,329377.9688,-6.752842426,5.433871746,-4.280071735,-0.152671754,-1.374045849,-1.450381637,314.5445251,2797,1403.662964,-1,257.8125
164428.6106,329385.7813,-6.750448704,5.467384815,-4.270496845,-0.290076345,-1.206106901,-0.916030526,314.5445251,2797,1403.662964,-1,257.8125
164428.6107,329393.5938,-6.767205238,5.467384815,-4.308797359,-0.274809152,-1.251908422,-1.190839648,314.5445251,2797,1402.93042,-1,257.8125
164428.6135,329401.4063,-6.750448704,5.464991093,-4.337522507,-0.48854962,-0.625954211,-1.007633567,314.3962097,2798,1400,-1,257.8125
164428.6233,329409.2188,-6.750448704,5.426690578,-4.315978527,-0.885496199,-0.97709924,-1.46564889,314.5445251,2797,1400.732544,-1,257.8125
164428.6282,329417.0313,-6.740873814,5.388390064,-4.27528429,-1.297709942,-1.160305381,-1.404580116,314.3962097,2798,1400.732544,-1,257.8125
164428.6331,329424.8438,-6.740873814,5.376421452,-4.260921478,-1.206106901,-0.97709924,-1.435114503,314.5445251,2797,1402.197754,-1,257.8125
164428.6446,329432.6563,-6.748054981,5.390783787,-4.268103123,-0.885496199,-0.97709924,-1.389312983,314.2480164,2799,1403.662964,-1,257.8125
164428.6538,329440.4688,-6.767205238,5.474565983,-4.366247654,-0.473282456,-1.038167953,-1.297709942,314.3962097,2798,1405.86084,-1,257.8125
164428.6545,329448.2813,-6.769598961,5.488928795,-4.325553417,-0.854961812,-0.687022924,-1.541984677,314.3962097,2798,1407.32605,-1,257.8125
164428.6687,329456.0938,-6.779174328,5.476959705,-4.29682827,-0.656488538,-0.671755731,-1.633587837,314.3962097,2798,1409.523804,-1,257.8125
164428.6749,329463.9063,-6.738480091,5.388390064,-4.272890568,-0.564885497,-0.839694679,-1.877862573,314.3962097,2798,1410.989014,-1,257.8125
164428.6758,329471.7188,-6.755236149,5.383602619,-4.294434547,0.106870227,-0.870229006,-1.95419848,314.3962097,2798,1411.721558,-1,257.8125
164428.6777,329479.5313,-6.757630348,5.419509411,-4.366247654,-0.030534351,-1.190839648,-2.122137308,314.2480164,2799,1413.186768,-1,257.8125
164428.6797,329487.3438,-6.743267536,5.445840836,-4.361460209,-0.687022924,-1.297709942,-1.740458012,314.2480164,2799,1413.919434,-1,257.8125
164428.6876,329495.1563,-6.745661259,5.438659668,-4.313584805,-1.02290082,-1.572519064,-2.04580164,314.2480164,2799,1412.454224,-1,257.8125
164428.6959,329502.9688,-6.748054981,5.448234558,-4.246559143,-1.328244328,-1.282442689,-2.04580164,314.0999451,2800,1411.721558,-1,257.8125
164428.6966,329510.7813,-6.771992683,5.419509411,-4.234590054,-0.53435117,-1.038167953,-2.259541988,314.2480164,2799,1409.523804,-1,257.8125
164428.7097,329518.5938,-6.831837177,5.383602619,-4.28725338,0.183206111,-0.854961812,-1.95419848,314.2480164,2799,1407.32605,-1,257.8125
164428.7102,329526.4063,-6.822262287,5.388390064,-4.282465458,0.015267176,-0.320610672,-1.496183157,314.0999451,2800,1403.662964,-1,257.8125
164428.7225,329534.2188,-6.793536663,5.385996342,-4.308797359,-0.366412222,-0.610687017,-1.328244328,314.2480164,2799,1399.267456,-1,257.8125
164428.7325,329542.0313,-6.779174328,5.414721489,-4.30640316,-0.885496199,-1.297709942,-0.793893158,314.0999451,2800,1397.06958,-1,484.375
164428.7329,329549.8438,-6.721723557,5.438659668,-4.265708923,-1.206106901,-1.603053451,-0.595419824,314.2480164,2799,1397.06958,-1,484.375
164428.7427,329557.6563,-6.733692169,5.469778538,-4.263315201,-1.206106901,-1.633587837,-0.702290058,314.2480164,2799,1397.802246,-1,484.375
164428.7485,329565.4688,-6.716936111,5.467384815,-4.268103123,-1.11450386,-1.877862573,-1.053435087,314.2480164,2799,1397.802246,-1,484.375
164428.7633,329573.2813,-6.736086369,5.46259737,-4.27528429,-0.885496199,-1.480916023,-1.145038128,314.0999451,2800,1401.46521,-1,484.375
164428.7913,329581.0938,-6.724117279,5.469778538,-4.229802608,-1.251908422,-1.312977076,-1.55725193,314.0999451,2800,1401.46521,-1,484.375
164428.793,329588.9063,-6.697785854,5.448234558,-4.258527756,-0.931297719,-1.267175555,-1.770992398,313.9520264,2801,1397.06958,-1,484.375
164428.7936,329596.7188,-6.704967022,5.414721489,-4.258527756,-1.206106901,-0.870229006,-1.770992398,314.0999451,2800,1391.941406,-1,484.375
164428.7953,329604.5313,-6.728904724,5.421903133,-4.27528429,-1.11450386,-0.992366433,-1.664122105,313.9520264,2801,1390.476196,-1,484.375
164428.7974,329612.3438,-6.748054981,5.402752876,-4.280071735,-1.190839648,-1.190839648,-1.55725193,313.9520264,2801,1388.278442,-1,484.375
164428.8113,329620.1563,-6.745661259,5.409934044,-4.270496845,-1.02290082,-1.251908422,-1.145038128,314.0999451,2800,1389.010986,-1,484.375
164428.8153,329627.9688,-6.731298447,5.421903133,-4.299221992,-1.11450386,-1.206106901,-1.175572515,313.8042603,2802,1391.941406,-1,484.375
164428.8263,329635.7813,-6.736086369,5.441053391,-4.29682827,-0.854961812,-1.419847369,-0.900763333,313.9520264,2801,1394.871826,-1,484.375
164428.8336,329643.5938,-6.724117279,5.455415726,-4.294434547,-1.02290082,-1.526717544,-0.931297719,313.9520264,2801,1397.802246,-1,484.375
164428.8436,329651.4063,-6.757630348,5.47217226,-4.294434547,-0.717557251,-1.404580116,-1.312977076,313.9520264,2801,1400.732544,-1,484.375
164428.8441,329659.2188,-6.750448704,5.464991093,-4.277678013,-0.870229006,-1.419847369,-1.297709942,313.8042603,2802,1404.39563,-1,484.375
164428.8542,329667.0313,-6.767205238,5.433871746,-4.280071735,-0.870229006,-1.312977076,-1.816793919,313.8042603,2802,1408.79126,-1,484.375
164428.8694,329674.8438,-6.760024071,5.417115688,-4.253740311,-0.687022924,-1.541984677,-1.389312983,313.8042603,2802,1413.919434,-1,484.375
164428.8753,329682.6563,-6.800718307,5.417115688,-4.27528429,-0.946564913,-1.358778596,-1.190839648,313.8042603,2802,1416.117188,-1,484.375
164428.8817,329690.4688,-6.786355495,5.431478024,-4.323159695,-0.748091578,-0.97709924,-1.06870234,313.8042603,2802,1418.315063,-1,484.375
164428.8873,329698.2813,-6.829443455,5.441053391,-4.373429298,-0.732824445,0,-0.946564913,313.6566162,2803,1419.780273,-1,484.375
164428.8954,329706.0938,-6.78156805,5.433871746,-4.29682827,-1.404580116,-1.251908422,-1.099236608,313.6566162,2803,1419.047607,-1,484.375
164428.9052,329713.9063,-6.716936111,5.433871746,-4.268103123,-0.381679386,-1.236641169,-1.725190878,313.6566162,2803,1417.582397,-1,484.375
164428.9141,329721.7188,-6.724117279,5.51526022,-4.387791634,-0.183206111,-1.297709942,-1.984732866,313.5090942,2804,1415.384644,-1,484.375
164428.9204,329729.5313,-6.695392132,5.517653942,-4.335128784,-1.343511462,-1.541984677,-1.893129826,313.6566162,2803,1411.721558,-1,484.375
164428.93,329737.3438,-6.728904724,5.445840836,-4.253740311,-1.02290082,-1.633587837,-2.061068773,313.6566162,2803,1405.86084,-1,484.375
164428.937,329745.1563,-6.767205238,5.438659668,-4.313584805,-0.595419824,-1.404580116,-2.183206081,313.6566162,2803,1400,-1,484.375
164428.945,329752.9688,-6.793536663,5.412327766,-4.28485918,-0.458015263,-0.778625965,-2.748091698,313.6566162,2803,1397.802246,-1,484.375
164428.9499,329760.7813,-6.817474365,5.34051466,-4.258527756,-0.412213743,-0.687022924,-2.335877895,313.6566162,2803,1398.53479,-1,484.375
164428.9601,329768.5938,-6.807899475,5.31897068,-4.263315201,0.167938933,-0.458015263,-1.984732866,313.6566162,2803,1402.93042,-1,484.375
164428.9659,329776.4063,-6.829443455,5.34051466,-4.251346588,0,-0.610687017,-1.633587837,313.5090942,2804,1405.86084,-1,484.375
164428.9729,329784.2188,-6.783961773,5.417115688,-4.229802608,-0.53435117,-0.702290058,-0.916030526,313.3617554,2805,1408.79126,-1,484.375
164428.9968,329792.0313,-6.776780605,5.433871746,-4.248952866,-0.763358772,-1.435114503,-1.02290082,313.5090942,2804,1410.25647,-1,484.375
164428.9974,329799.8438,-6.760024071,5.457809925,-4.289647102,-0.641221344,-1.404580116,-1.343511462,313.6566162,2803,1408.058594,-1,484.375
164428.9998,329807.6563,-6.760024071,5.48414135,-4.28485918,-0.625954211,-1.694656491,-1.404580116,313.5090942,2804,1405.86084,-1,484.375
164429.0002,329815.4688,-6.733692169,5.464991093,-4.292040825,-0.717557251,-1.725190878,-1.541984677,313.5090942,2804,1400,-1,484.375
164429.014,329823.2813,-6.762417793,5.467384815,-4.272890568,-1.007633567,-1.435114503,-1.541984677,313.5090942,2804,1396.337036,-1,484.375
164429.0194,329831.0938,-6.738480091,5.438659668,-4.220227242,-0.97709924,-1.083969474,-1.55725193,313.5090942,2804,1393.406616,-1,484.375
164429.0273,329838.9063,-6.776780605,5.436265945,-4.251346588,-1.053435087,-0.870229006,-1.435114503,313.5090942,2804,1391.941406,-1,484.375
164429.0389,329846.7188,-6.774386406,5.426690578,-4.270496845,-1.221374035,-0.503816783,-1.832061052,313.5090942,2804,1391.20874,-1,484.375
164429.0393,329854.5313,-6.795930386,5.429084301,-4.308797359,-1.007633567,-0.671755731,-1.709923625,313.3617554,2805,1392.67395,-1,484.375
164429.0505,329862.3438,-6.767205238,5.417115688,-4.299221992,-0.824427485,-0.290076345,-1.664122105,313.5090942,2804,1391.20874,-1,484.375
164429.0563,329870.1563,-6.757630348,5.424296856,-4.270496845,-0.763358772,-0.366412222,-1.648854971,313.3617554,2805,1390.476196,-1,484.375
164429.0652,329877.9688,-6.767205238,5.412327766,-4.268103123,-0.320610672,-0.24427481,-1.893129826,313.3617554,2805,1389.010986,-1,484.375
164429.0753,329885.7813,-6.757630348,5.450628281,-4.270496845,-0.167938933,-0.213740453,-1.51145041,313.3617554,2805,1388.278442,-1,484.375
164429.0803,329893.5938,-6.760024071,5.445840836,-4.30640316,-0.381679386,-0.366412222,-1.694656491,313.3617554,2805,1389.010986,-1,484.375
164429.0906,329901.4063,-6.752842426,5.445840836,-4.29682827,-0.519083977,-0.305343509,-1.587786317,313.2145081,2806,1390.476196,-1,484.375
164429.1054,329909.2188,-6.714542389,5.457809925,-4.294434547,-0.671755731,-0.793893158,-1.419847369,313.3617554,2805,1394.871826,-1,484.375
164429.1063,329917.0313,-6.721723557,5.431478024,-4.31837225,-1.02290082,-1.145038128,-1.648854971,313.2145081,2806,1399.267456,-1,484.375
164429.1164,329924.8438,-6.740873814,5.436265945,-4.29682827,-1.541984677,-0.839694679,-2.030534267,313.2145081,2806,1404.39563,-1,484.375
164429.1254,329932.6563,-6.771992683,5.448234558,-4.289647102,-1.206106901,-0.625954211,-1.786259532,313.2145081,2806,1405.128174,-1,484.375
164429.1345,329940.4688,-6.774386406,5.453022003,-4.28725338,-0.854961812,-0.519083977,-1.893129826,312.9205017,2808,1408.058594,-1,484.375
164429.1413,329948.2813,-6.774386406,5.438659668,-4.280071735,-0.931297719,-0.625954211,-1.923664093,313.2145081,2806,1409.523804,-1,484.375
164429.1422,329956.0938,-6.800718307,5.429084301,-4.32794714,-0.503816783,-0.366412222,-1.709923625,313.2145081,2806,1410.989014,-1,484.375
164429.159,329963.9063,-6.791142941,5.417115688,-4.292040825,-0.061068702,-0.320610672,-1.343511462,313.0674438,2807,1409.523804,-1,484.375
164429.1683,329971.7188,-6.78156805,5.397965431,-4.270496845,-0.137404576,-0.320610672,-1.450381637,313.2145081,2806,1407.32605,-1,484.375
164429.1742,329979.5313,-6.791142941,5.402752876,-4.244164944,-0.167938933,-0.106870227,-1.328244328,313.2145081,2806,1408.79126,-1,484.375
164429.1832,329987.3438,-6.78156805,5.417115688,-4.251346588,-0.305343509,-0.137404576,-1.496183157,313.2145081,2806,1408.058594,-1,445.3125
164429.195,329995.1563,-6.78156805,5.421903133,-4.246559143,-0.19847329,0.19847329,-1.053435087,313.2145081,2806,1408.058594,-1,445.3125
164429.2001,330002.9688,-6.779174328,5.426690578,-4.308797359,-0.290076345,0.045801528,-1.282442689,312.7736816,2809,1410.989014,-1,445.3125
164429.2089,330010.7813,-6.762417793,5.433871746,-4.315978527,0.045801528,-0.061068702,-1.160305381,313.0674438,2807,1414.651978,-1,445.3125
164429.2193,330018.5938,-6.740873814,5.412327766,-4.292040825,-0.305343509,-0.320610672,-1.312977076,313.2145081,2806,1418.315063,-1,445.3125
164429.2329,330026.4063,-6.762417793,5.414721489,-4.292040825,-0.24427481,-0.778625965,-1.099236608,313.0674438,2807,1420.512817,-1,445.3125
164429.2336,330034.2188,-6.740873814,5.431478024,-4.292040825,-0.4427481,-1.02290082,-1.160305381,313.0674438,2807,1421.245361,-1,445.3125
164429.2429,330042.0313,-6.740873814,5.436265945,-4.31837225,-0.824427485,-1.175572515,-1.083969474,312.9205017,2808,1421.978027,-1,445.3125
164429.2489,330049.8438,-6.767205238,5.438659668,-4.315978527,-0.641221344,-0.992366433,-0.946564913,313.0674438,2807,1420.512817,-1,445.3125
164429.2592,330057.6563,-6.762417793,5.448234558,-4.299221992,-0.946564913,-0.870229006,-1.251908422,312.9205017,2808,1418.315063,-1,445.3125
164429.264,330065.4688,-6.755236149,5.426690578,-4.28725338,-0.778625965,-0.519083977,-1.160305381,313.0674438,2807,1418.315063,-1,445.3125
164429.2728,330073.2813,-6.767205238,5.402752876,-4.268103123,-0.610687017,-0.335877866,-1.450381637,312.9205017,2808,1417.582397,-1,445.3125
164429.2771,330081.0938,-6.771992683,5.393177509,-4.289647102,-0.595419824,-0.106870227,-1.236641169,313.0674438,2807,1415.384644,-1,445.3125
164429.2878,330088.9063,-6.795930386,5.390783787,-4.263315201,-0.381679386,0,-0.595419824,312.9205017,2808,1411.721558,-1,445.3125
164429.2969,330096.7188,-6.793536663,5.441053391,-4.280071735,-0.381679386,0.061068702,-0.946564913,312.9205017,2808,1407.32605,-1,445.3125
164429.3068,330104.5313,-6.776780605,5.441053391,-4.260921478,-0.687022924,-0.320610672,-0.931297719,312.7736816,2809,1404.39563,-1,445.3125
164429.3072,330112.3438,-6.771992683,5.469778538,-4.292040825,-0.58015269,-0.183206111,-1.053435087,312.9205017,2808,1400,-1,445.3125
164429.3166,330120.1563,-6.750448704,5.464991093,-4.304009438,-0.396946579,-0.030534351,-0.854961812,312.7736816,2809,1396.337036,-1,445.3125
164429.3306,330127.9688,-6.750448704,5.453022003,-4.335128784,-0.030534351,0.366412222,-0.900763333,312.9205017,2808,1394.871826,-1,445.3125
164429.3365,330135.7813,-6.762417793,5.445840836,-4.342309952,0.351145029,0.152671754,-0.900763333,312.7736816,2809,1396.337036,-1,445.3125
164429.3436,330143.5938,-6.798324585,5.445840836,-4.339916229,-0.122137405,-0.183206111,-1.175572515,312.7736816,2809,1395.60437,-1,445.3125
164429.3526,330151.4063,-6.752842426,5.409934044,-4.31837225,-0.4427481,-0.305343509,-1.02290082,312.4804688,2811,1397.06958,-1,445.3125
164429.3615,330159.2188,-6.745661259,5.383602619,-4.28485918,-0.702290058,-0.259541988,-0.702290058,312.6270142,2810,1397.06958,-1,445.3125
164429.3677,330167.0313,-6.728904724,5.397965431,-4.308797359,-0.305343509,-0.473282456,-0.793893158,312.6270142,2810,1397.802246,-1,445.3125
164429.3715,330174.8438,-6.743267536,5.429084301,-4.380610466,-0.473282456,0.152671754,-0.885496199,312.7736816,2809,1397.802246,-1,445.3125
164429.3814,330182.6563,-6.762417793,5.441053391,-4.423698425,-0.351145029,0.366412222,-0.625954211,312.4804688,2811,1396.337036,-1,445.3125
164429.3955,330190.4688,-6.788749218,5.441053391,-4.363853931,-0.24427481,0.24427481,-1.374045849,312.6270142,2810,1394.871826,-1,445.3125
164429.4009,330198.2813,-6.764811516,5.412327766,-4.337522507,-0.4427481,0.213740453,-1.404580116,312.6270142,2810,1393.406616,-1,445.3125
164429.4121,330206.0938,-6.760024071,5.381208897,-4.31837225,-0.137404576,0.4427481,-1.496183157,312.6270142,2810,1394.13916,-1,445.3125
164429.4227,330213.9063,-6.788749218,5.395571709,-4.390185356,0.625954211,-0.015267176,-1.541984677,312.6270142,2810,1394.13916,-1,445.3125
164429.4232,330221.7188,-6.774386406,5.438659668,-4.409335613,0.48854962,-0.122137405,-1.51145041,312.6270142,2810,1394.13916,-1,445.3125
164429.4328,330229.5313,-6.724117279,5.488928795,-4.368641376,-0.396946579,0.015267176,-1.160305381,312.4804688,2811,1393.406616,-1,445.3125
164429.4334,330237.3438,-6.683423042,5.453022003,-4.349491119,-0.564885497,-0.24427481,-1.679389358,312.3340759,2812,1394.13916,-1,445.3125
164429.4483,330245.1563,-6.704967022,5.450628281,-4.263315201,-0.4427481,0.213740453,-2,312.4804688,2811,1392.67395,-1,257.8125
164429.4602,330252.9688,-6.752842426,5.443447113,-4.272890568,-0.213740453,0.381679386,-2.259541988,312.4804688,2811,1391.20874,-1,257.8125
164429.4652,330260.7813,-6.807899475,5.393177509,-4.265708923,0.641221344,0.732824445,-2.106870174,312.4804688,2811,1391.941406,-1,257.8125
164429.4732,330268.5938,-6.805505753,5.369239807,-4.282465458,0.824427485,0.778625965,-1.755725145,312.4804688,2811,1394.13916,-1,257.8125
164429.4761,330276.4063,-6.771992683,5.388390064,-4.308797359,0.24427481,0.564885497,-1.11450386,312.4804688,2811,1393.406616,-1,257.8125
164429.4858,330284.2188,-6.740873814,5.431478024,-4.30640316,-0.290076345,-0.519083977,-1.06870234,312.4804688,2811,1393.406616,-1,257.8125
164429.4932,330292.0313,-6.728904724,5.438659668,-4.315978527,-0.53435117,-0.656488538,-1.053435087,312.3340759,2812,1391.941406,-1,257.8125
164429.4935,330299.8438,-6.676241875,5.46259737,-4.30640316,-0.793893158,-0.503816783,-1.160305381,312.3340759,2812,1390.476196,-1,257.8125
164429.4992,330307.6563,-6.69060421,5.47217226,-4.308797359,-0.595419824,-0.351145029,-1.251908422,312.3340759,2812,1389.010986,-1,257.8125
164429.5131,330315.4688,-6.678635597,5.46259737,-4.29682827,-0.961832047,-0.503816783,-1.648854971,312.3340759,2812,1390.476196,-1,257.8125
164429.5208,330323.2813,-6.66906023,5.460203648,-4.289647102,-1.053435087,-0.091603056,-2,312.3340759,2812,1392.67395,-1,257.8125
164429.5251,330331.0938,-6.664272785,5.464991093,-4.292040825,-0.97709924,0.503816783,-2.13740468,312.3340759,2812,1394.871826,-1,257.8125
164429.527,330338.9063,-6.688210487,5.438659668,-4.28725338,-1.007633567,0.549618304,-2.015267134,312.1878052,2813,1397.06958,-1,257.8125
164429.5402,330346.7188,-6.697785854,5.419509411,-4.292040825,-1.06870234,0.473282456,-2.198473215,312.3340759,2812,1397.802246,-1,257.8125
164429.5518,330354.5313,-6.726511002,5.412327766,-4.325553417,-0.610687017,0.381679386,-1.496183157,312.1878052,2813,1397.06958,-1,257.8125
164429.554,330362.3438,-6.793536663,5.397965431,-4.344703674,-0.396946579,0.351145029,-1.541984677,312.1878052,2813,1398.53479,-1,257.8125
164429.5628,330370.1563,-6.762417793,5.388390064,-4.339916229,-0.19847329,0.351145029,-1.129770994,312.1878052,2813,1397.802246,-1,257.8125
164429.579,330377.9688,-6.786355495,5.431478024,-4.359066486,0.259541988,0.274809152,-1.221374035,312.1878052,2813,1398.53479,-1,257.8125
164429.5815,330385.7813,-6.776780605,5.421903133,-4.332735062,0.610687017,0.53435117,-0.931297719,312.041687,2814,1398.53479,-1,257.8125
164429.5908,330393.5938,-6.743267536,5.414721489,-4.315978527,0.687022924,0.564885497,-0.870229006,312.041687,2814,1400,-1,257.8125
164429.5977,330401.4063,-6.731298447,5.414721489,-4.339916229,0.335877866,0.671755731,-0.778625965,312.1878052,2813,1400.732544,-1,257.8125
164429.6047,330409.2188,-6.719329834,5.402752876,-4.339916229,-0.122137405,0.809160292,-0.885496199,312.1878052,2813,1402.93042,-1,257.8125
164429.6097,330417.0313,-6.726511002,5.419509411,-4.359066486,-0.53435117,0.763358772,-1.267175555,311.8956909,2815,1402.93042,-1,257.8125
164429.6187,330424.8438,-6.724117279,5.409934044,-4.375823021,-0.595419824,0.946564913,-1.267175555,312.041687,2814,1404.39563,-1,257.8125
164429.6202,330432.6563,-6.750448704,5.429084301,-4.442848682,-0.167938933,1.236641169,-1.02290082,312.041687,2814,1402.93042,-1,257.8125
164429.6378,330440.4688,-6.786355495,5.426690578,-4.469180107,-0.458015263,0.870229006,-1.236641169,312.041687,2814,1405.86084,-1,257.8125
164429.6455,330448.2813,-6.757630348,5.393177509,-4.385397911,-0.381679386,-0.519083977,-1.175572515,312.041687,2814,1405.86084,-1,257.8125
164429.6473,330456.0938,-6.783961773,5.438659668,-4.488330364,1.099236608,-0.106870227,-1.496183157,312.041687,2814,1406.593384,-1,257.8125
164429.6565,330463.9063,-6.726511002,5.491322517,-4.454817295,0.290076345,0.274809152,-1.160305381,312.1878052,2813,1408.058594,-1,257.8125
164429.6655,330471.7188,-6.700179577,5.455415726,-4.344703674,0.152671754,0.351145029,-1.083969474,311.7498474,2816,1408.79126,-1,226.5625
164429.6804,330479.5313,-6.702573299,5.402752876,-4.339916229,0.732824445,0.53435117,-1.587786317,312.041687,2814,1408.79126,-1,226.5625
164429.683,330487.3438,-6.721723557,5.431478024,-4.373429298,0.702290058,1.251908422,-1.969465613,312.1878052,2813,1408.058594,-1,226.5625
164429.6925,330495.1563,-6.745661259,5.381208897,-4.356672764,0.595419824,1.404580116,-2.641221285,311.8956909,2815,1406.593384,-1,226.5625
164429.6936,330502.9688,-6.743267536,5.342908382,-4.323159695,0.946564913,1.282442689,-2.335877895,311.8956909,2815,1402.93042,-1,226.5625
164429.7065,330510.7813,-6.786355495,5.333333492,-4.359066486,0.763358772,1.251908422,-1.969465613,311.8956909,2815,1397.802246,-1,226.5625
164429.7156,330518.5938,-6.795930386,5.354877472,-4.366247654,1.129770994,0.732824445,-1.343511462,311.8956909,2815,1394.13916,-1,226.5625
164429.7214,330526.4063,-6.750448704,5.357271194,-4.332735062,0.900763333,0,-1.236641169,311.7498474,2816,1389.74353,-1,226.5625
164429.7228,330534.2188,-6.721723557,5.388390064,-4.315978527,1.648854971,-0.58015269,-1.328244328,311.8956909,2815,1383.882813,-1,226.5625
164429.7374,330542.0313,-6.714542389,5.393177509,-4.280071735,1.709923625,-0.53435117,-1.175572515,311.7498474,2816,1378.021973,-1,226.5625
164429.7503,330549.8438,-6.731298447,5.385996342,-4.272890568,2.122137308,-1.007633567,-1.541984677,311.7498474,2816,1373.626343,-1,226.5625
164429.7517,330557.6563,-6.738480091,5.412327766,-4.272890568,1.893129826,-1.312977076,-1.877862573,311.7498474,2816,1369.963379,-1,226.5625
164429.7654,330565.4688,-6.752842426,5.407540321,-4.32794714,1.755725145,-0.381679386,-1.923664093,311.8956909,2815,1368.498169,-1,226.5625
164429.7734,330573.2813,-6.776780605,5.407540321,-4.356672764,1.984732866,-0.4427481,-2.625954151,311.7498474,2816,1369.963379,-1,226.5625
164429.7758,330581.0938,-6.78156805,5.376421452,-4.421304703,1.221374035,0.458015263,-2.122137308,311.7498474,2816,1371.428589,-1,226.5625
164429.7905,330588.9063,-6.783961773,5.383602619,-4.42848587,0.961832047,1.419847369,-2.183206081,311.7498474,2816,1369.963379,-1,226.5625
164429.7995,330596.7188,-6.779174328,5.333333492,-4.473967552,0.687022924,1.55725193,-2.061068773,311.7498474,2816,1367.032959,-1,226.5625
164429.8094,330604.5313,-6.743267536,5.28785181,-4.483542919,0.549618304,1.55725193,-1.908396959,311.7498474,2816,1362.637329,-1,226.5625
164429.8162,330612.3438,-6.748054981,5.314183235,-4.452423573,0.763358772,1.190839648,-1.633587837,311.7498474,2816,1360.439575,-1,226.5625
164429.8181,330620.1563,-6.714542389,5.347695827,-4.457211018,1.206106901,0.58015269,-1.603053451,311.7498474,2816,1354.578735,-1,226.5625
164429.8294,330627.9688,-6.764811516,5.364452362,-4.447636127,0.992366433,0.381679386,-1.267175555,311.7498474,2816,1351.648315,-1,226.5625
164429.8436,330635.7813,-6.769598961,5.414721489,-4.488330364,1.099236608,-0.137404576,-1.267175555,311.604126,2817,1346.520142,-1,226.5625
164429.8482,330643.5938,-6.752842426,5.381208897,-4.46199894,1.053435087,-0.351145029,-0.97709924,311.7498474,2816,1341.391968,-1,226.5625
164429.8551,330651.4063,-6.764811516,5.395571709,-4.469180107,0.870229006,-0.900763333,-0.24427481,311.604126,2817,1335.531128,-1,226.5625
164429.8565,330659.2188,-6.738480091,5.424296856,-4.447636127,0.732824445,-0.763358772,-0.274809152,311.604126,2817,1328.937744,-1,226.5625
164429.8682,330667.0313,-6.709754467,5.412327766,-4.430879593,0.519083977,-0.931297719,-0.4427481,311.4585571,2818,1321.611694,-1,226.5625
164429.8755,330674.8438,-6.688210487,5.419509411,-4.435667038,0.53435117,-0.48854962,-0.48854962,311.604126,2817,1315.750977,-1,226.5625
164429.8775,330682.6563,-6.688210487,5.433871746,-4.442848682,0.687022924,-0.290076345,-0.458015263,311.4585571,2818,1307.692261,-1,226.5625
164429.885,330690.4688,-6.700179577,5.385996342,-4.454817295,0.351145029,-0.045801528,-0.335877866,311.1678162,2820,1299.633667,-1,226.5625
164429.8863,330698.2813,-6.71214819,5.388390064,-4.44045496,0.503816783,0.015267176,-0.213740453,311.4585571,2818,1289.377319,-1,226.5625
164429.9034,330706.0938,-6.726511002,5.37163353,-4.478755474,0.732824445,0.015267176,-0.274809152,311.4585571,2818,1279.853516,-1,226.5625
164429.9123,330713.9063,-6.733692169,5.34051466,-4.46199894,0.58015269,0.167938933,0.19847329,311.4585571,2818,1271.062256,-1,226.5625
164429.918,330721.7188,-6.736086369,5.316576958,-4.47157383,1.328244328,-0.290076345,0.458015263,311.4585571,2818,1262.271118,-1,226.5625
164429.9233,330729.5313,-6.71214819,5.31897068,-4.483542919,1.236641169,-0.671755731,0.610687017,311.3131104,2819,1253.479858,-1,226.5625
164429.9329,330737.3438,-6.66906023,5.35008955,-4.438061237,0.809160292,-0.809160292,0.610687017,311.3131104,2819,1245.421265,-1,226.5625
164429.9347,330745.1563,-6.635547638,5.383602619,-4.447636127,0.732824445,-1.496183157,0.58015269,311.4585571,2818,1236.630005,-1,226.5625
164429.9448,330752.9688,-6.635547638,5.424296856,-4.454817295,0.900763333,-0.793893158,0.4427481,311.1678162,2820,1233.699585,-1,281.25
164429.9566,330760.7813,-6.640335083,5.436265945,-4.44045496,0.778625965,-1.251908422,0.396946579,311.1678162,2820,1229.304077,-1,281.25
164429.9692,330768.5938,-6.652304173,5.431478024,-4.438061237,0.671755731,-1.603053451,0.213740453,311.3131104,2819,1224.908447,-1,281.25
164429.9736,330776.4063,-6.642728806,5.464991093,-4.416517258,0.320610672,-2.122137308,0.48854962,311.3131104,2819,1219.780273,-1,281.25
164429.9825,330784.2188,-6.630760193,5.457809925,-4.349491119,0.167938933,-1.95419848,0.396946579,311.3131104,2819,1215.384644,-1,281.25
164429.9855,330792.0313,-6.642728806,5.436265945,-4.349491119,0.687022924,-2.244274855,0.19847329,311.1678162,2820,1208.79126,-1,281.25
164429.9965,330799.8438,-6.664272785,5.417115688,-4.375823021,1.11450386,-2.290076256,0.412213743,311.022644,2821,1201.46521,-1,281.25
164430.0117,330807.6563,-6.66906023,5.448234558,-4.430879593,1.328244328,-2.381679296,0.687022924,311.1678162,2820,1191.20874,-1,281.25
164430.0165,330815.4688,-6.661879063,5.474565983,-4.433273315,1.358778596,-2.870229006,0.564885497,311.3131104,2819,1176.556763,-1,281.25
164430.0179,330823.2813,-6.678635597,5.467384815,-4.426092148,1.251908422,-3.633587837,0.748091578,311.022644,2821,1161.904785,-1,281.25
164430.0286,330831.0938,-6.673848152,5.46259737,-4.416517258,0.854961812,-3.847328186,0.427480906,311.3131104,2819,1146.520142,-1,281.25
164430.0364,330838.9063,-6.65948534,5.400359154,-4.409335613,0.58015269,-4.274809361,0.564885497,311.1678162,2820,1132.600708,-1,281.25
164430.0434,330846.7188,-6.685816765,5.395571709,-4.459605217,0.702290058,-4.473282337,0.656488538,311.1678162,2820,1117.94873,-1,281.25
164430.0716,330854.5313,-6.68102932,5.385996342,-4.45002985,0.503816783,-4.687022686,0.48854962,311.022644,2821,1104.761963,-1,281.25
164430.0751,330862.3438,-6.716936111,5.385996342,-4.502693176,0.122137405,-4.106870174,0.717557251,311.1678162,2820,1093.772949,-1,281.25
164430.0767,330870.1563,-6.719329834,5.393177509,-4.524237156,-0.030534351,-4.39694643,0.824427485,311.1678162,2820,1082.783936,-1,281.25
164430.0786,330877.9688,-6.724117279,5.35008955,-4.447636127,0.290076345,-5.129770756,0.519083977,310.877594,2822,1076.19043,-1,281.25
164430.0803,330885.7813,-6.695392132,5.345302105,-4.392579079,-0.137404576,-5.541984558,0.564885497,311.022644,2821,1069.597046,-1,281.25
164430.0819,330893.5938,-6.67145443,5.385996342,-4.373429298,0.305343509,-5.816793919,0.763358772,311.022644,2821,1063.003662,-1,281.25
164430.0899,330901.4063,-6.652304173,5.476959705,-4.442848682,-0.076335877,-6.137404442,0.625954211,311.1678162,2820,1055.677612,-1,281.25
164430.0985,330909.2188,-6.630760193,5.496109962,-4.44045496,-0.641221344,-6.549618244,0.58015269,310.877594,2822,1052.014648,-1,281.25
164430.1043,330917.0313,-6.563734055,5.534410477,-4.509874344,-3.251908302,-7.725190639,0.045801528,310.877594,2822,1047.619019,-1,281.25
164430.1173,330924.8438,-6.625972271,5.481747627,-4.476361275,-1.893129826,-8.412213326,0.24427481,311.022644,2821,1043.223389,-1,281.25
164430.1251,330932.6563,-6.645122528,5.498503685,-4.502693176,-4.305343628,-8.809160233,-0.213740453,311.022644,2821,1038.827881,-1,281.25
164430.1302,330940.4688,-6.771992683,5.429084301,-4.452423573,-2.946564913,-7.679389477,0.152671754,310.877594,2822,1032.967041,-1,281.25
164430.1353,330948.2813,-6.728904724,5.448234558,-4.531418324,-4.549618244,-8.809160233,-0.778625965,310.877594,2822,1027.838867,-1,281.25
164430.1448,330956.0938,-6.762417793,5.419509411,-4.442848682,-3.679389238,-7.648854733,-0.427480906,310.877594,2822,1024.175781,-1,281.25
164430.1555,330963.9063,-6.65948534,5.496109962,-4.488330364,-6.748091698,-7.694656372,-0.870229006,310.877594,2822,1020.512817,-1,281.25
164430.1568,330971.7188,-6.664272785,5.474565983,-4.397367001,-6.488549709,-5.480916023,0.015267176,310.877594,2822,1018.315002,-1,281.25
164430.1689,330979.5313,-6.736086369,5.460203648,-4.30640316,-5.435114384,-6.519083977,-0.427480906,310.877594,2822,1018.315002,-1,281.25
164430.1812,330987.3438,-6.678635597,5.431478024,-4.351885319,-6.244274616,-7.236641407,-0.961832047,310.877594,2822,1017.582397,-1,281.25
164430.1823,330995.1563,-6.769598961,5.407540321,-4.292040825,-6.167938709,-8.213740349,-0.595419824,310.877594,2822,1017.582397,-1,281.25
164430.1931,331002.9688,-6.767205238,5.352483749,-4.241771221,-4.473282337,-7.923664093,0.229007632,310.7326965,2823,1018.315002,-1,281.25
164430.1944,331010.7813,-6.68102932,5.390783787,-4.292040825,-5.419847488,-9.358778954,0.717557251,310.7326965,2823,1016.849792,-1,281.25
164430.2088,331018.5938,-6.678635597,5.429084301,-4.301615715,-5.435114384,-9.129771233,1.190839648,310.7326965,2823,1016.849792,-1,281.25
164430.2181,331026.4063,-6.661879063,5.48414135,-4.263315201,-5.664122105,-9.480916023,1.709923625,310.7326965,2823,1014.652039,-1,281.25
164430.2193,331034.2188,-6.666666508,5.496109962,-4.189108372,-5.1603055,-8.870228767,1.06870234,310.7326965,2823,1015.384644,213.3333282,281.25
164430.2351,331042.0313,-6.642728806,5.505685329,-4.16517067,-4.320610523,-8.335877419,0.4427481,310.5879517,2824,1016.117188,213.3333282,281.25
164430.2364,331049.8438,-6.63794136,5.505685329,-4.146020412,-3.175572634,-8.152671814,-0.503816783,310.5879517,2824,1016.849792,213.3333282,281.25
164430.2441,331057.6563,-6.575703144,5.543985844,-4.181927204,-4.503816605,-6.641221523,-0.564885497,310.5879517,2824,1016.117188,213.3333282,281.25
164430.2459,331065.4688,-6.702573299,5.441053391,-4.134051323,-2.717557192,-5.694656372,-0.213740453,310.5879517,2824,1018.315002,213.3333282,281.25
164430.2581,331073.2813,-6.657091618,5.46259737,-4.17474556,-3.450381756,-5.725190639,0,310.5879517,2824,1023.443237,213.3333282,281.25
164430.2769,331081.0938,-6.767205238,5.397965431,-4.167564392,-2.961832047,-5.175572395,0.061068702,310.4432983,2825,1031.501831,213.3333282,281.25
164430.2781,331088.9063,-6.786355495,5.424296856,-4.177139282,-4.137404442,-5.923664093,-0.274809152,310.5879517,2824,1039.560425,213.3333282,281.25
164430.2868,331096.7188,-6.724117279,5.460203648,-4.198683262,-3.801526785,-4.687022686,-0.030534351,310.4432983,2825,1051.282104,213.3333282,281.25
164430.2879,331104.5313,-6.769598961,5.431478024,-4.057450771,-1.206106901,-4.290076256,-0.030534351,310.4432983,2825,1064.468872,213.3333282,281.25
164430.3026,331112.3438,-6.726511002,5.421903133,-4.064631939,-0.351145029,-3.389312983,0.122137405,310.4432983,2825,1079.853516,213.3333282,281.25
164430.3182,331120.1563,-6.750448704,5.49371624,-4.160383224,-0.290076345,-2.946564913,-0.015267176,310.5879517,2824,1092.307739,213.3333282,281.25
164430.3251,331127.9688,-6.764811516,5.512866497,-4.191502094,-0.473282456,-2.763358831,-0.290076345,310.4432983,2825,1102.564087,213.3333282,281.25
164430.3342,331135.7813,-6.757630348,5.512866497,-4.186714649,-1.007633567,-2.97709918,-0.717557251,310.2988281,2826,1109.890137,213.3333282,281.25
164430.3441,331143.5938,-6.733692169,5.48414135,-4.189108372,-1.541984677,-3.801526785,-0.916030526,310.2988281,2826,1117.94873,213.3333282,281.25
164430.3533,331151.4063,-6.745661259,5.498503685,-4.177139282,-1.984732866,-3.435114622,-1.282442689,310.4432983,2825,1122.34436,213.3333282,281.25
164430.354,331159.2188,-6.786355495,5.503291607,-4.193895817,-1.129770994,-2.458015203,-0.58015269,310.1544495,2827,1128.205078,213.3333282,281.25
164430.3631,331167.0313,-6.81268692,5.48414135,-4.210652351,-0.900763333,-3.816793919,-0.610687017,310.2988281,2826,1135.531128,213.3333282,281.25
164430.371,331174.8438,-6.793536663,5.47217226,-4.138839245,-0.213740453,-4.778625965,-0.366412222,310.1544495,2827,1142.857178,213.3333282,281.25
164430.3792,331182.6563,-6.841412544,5.596648693,-4.280071735,-0.259541988,-4.748091698,-0.58015269,310.2988281,2826,1150.915771,213.3333282,281.25
164430.3908,331190.4688,-6.884500504,5.608617783,-4.179533005,0.946564913,-4.702290058,0.412213743,310.1544495,2827,1157.509155,213.3333282,281.25
164430.3913,331198.2813,-6.736086369,5.601436138,-4.067025661,-0.656488538,-5.083969593,0.503816783,310.1544495,2827,1164.102539,213.3333282,281.25
164430.406,331206.0938,-6.733692169,5.575104713,-4.057450771,0.839694679,-4.290076256,0,310.1544495,2827,1171.428589,213.3333282,281.25
164430.4143,331213.9063,-6.760024071,5.553560734,-4.03111887,1.587786317,-3.526717663,-0.4427481,310.1544495,2827,1178.021973,213.3333282,281.25
164430.4239,331221.7188,-6.817474365,5.479353905,-4.040694237,3.221374035,-2.702290058,-0.900763333,310.1544495,2827,1185.348022,213.3333282,281.25
164430.4246,331229.5313,-6.795930386,5.474565983,-4.095751286,3.86259532,-1.95419848,-1.038167953,310.0102234,2828,1191.20874,213.3333282,281.25
164430.4349,331237.3438,-6.865350246,5.510472775,-4.179533005,3.740458012,-1.236641169,-1.312977076,310.1544495,2827,1200,213.3333282,281.25
164430.4518,331245.1563,-6.850987434,5.500897884,-4.191502094,2.961832047,-2.04580164,-1.404580116,310.1544495,2827,1208.79126,213.3333282,281.25
164430.4577,331252.9688,-6.817474365,5.498503685,-4.157989025,2.53435111,-2.778625965,-1.175572515,310.0102234,2828,1221.978027,213.3333282,281.25
164430.4597,331260.7813,-6.793536663,5.498503685,-4.150807858,2.335877895,-2.946564913,-1.770992398,310.0102234,2828,1233.699585,213.3333282,281.25
164430.4692,331268.5938,-6.78156805,5.47217226,-4.14362669,2.519083977,-2.625954151,-1.923664093,310.0102234,2828,1246.886475,213.3333282,281.25
164430.4736,331276.4063,-6.769598961,5.457809925,-4.17474556,2.396946669,-2.335877895,-1.664122105,310.0102234,2828,1259.340698,213.3333282,281.25
164430.4817,331284.2188,-6.774386406,5.455415726,-4.193895817,2.04580164,-1.95419848,-1.664122105,310.0102234,2828,1270.329712,213.3333282,281.25
164430.4873,331292.0313,-6.752842426,5.467384815,-4.201076984,1.984732866,-1.206106901,-1.938931346,309.8661499,2829,1279.12085,232.7272797,257.8125
164430.4957,331299.8438,-6.764811516,5.457809925,-4.256134033,1.053435087,-0.4427481,-2.106870174,310.0102234,2828,1286.446899,232.7272797,257.8125
164430.5067,331307.6563,-6.745661259,5.431478024,-4.239377499,0.473282456,0.19847329,-2.53435111,309.722168,2830,1292.307739,232.7272797,257.8125
164430.5175,331315.4688,-6.793536663,5.400359154,-4.260921478,0.641221344,0.916030526,-2.58015275,309.8661499,2829,1298.168457,232.7272797,257.8125
164430.518,331323.2813,-6.78156805,5.405146599,-4.210652351,0.503816783,1.389312983,-2.198473215,309.722168,2830,1303.296753,232.7272797,257.8125
164430.5276,331331.0938,-6.743267536,5.450628281,-4.169958115,1.129770994,1.51145041,-2.152671814,309.722168,2830,1309.890137,232.7272797,257.8125
164430.5388,331338.9063,-6.757630348,5.479353905,-4.119688988,1.755725145,1.389312983,-2.396946669,309.8661499,2829,1316.483521,232.7272797,257.8125
164430.5402,331346.7188,-6.80311203,5.529623032,-4.107719898,2.671755791,0.793893158,-2.44274807,309.8661499,2829,1324.542114,232.7272797,257.8125
164430.5511,331354.5313,-6.819868565,5.599042416,-4.136445045,3.02290082,-0.229007632,-2.97709918,309.722168,2830,1332.600708,232.7272797,257.8125
164430.5617,331362.3438,-6.81268692,5.651705742,-4.155595303,2.488549709,-0.351145029,-3.816793919,309.722168,2830,1342.124512,232.7272797,257.8125
164430.5701,331370.1563,-6.798324585,5.649312019,-4.205864906,1.816793919,-0.351145029,-4.381679535,309.722168,2830,1350.915771,232.7272797,257.8125
164430.5775,331377.9688,-6.807899475,5.644524097,-4.193895817,1.618320584,-0.473282456,-5.297709942,309.8661499,2829,1358.974365,232.7272797,257.8125
164430.5831,331385.7813,-6.767205238,5.548773289,-4.193895817,1.572519064,0.732824445,-5.358778477,309.5783691,2831,1366.300415,232.7272797,257.8125
164430.5919,331393.5938,-6.788749218,5.47217226,-4.189108372,1.358778596,0.610687017,-5.11450386,309.5783691,2831,1372.893799,232.7272797,257.8125
164430.5964,331401.4063,-6.815080643,5.369239807,-4.227408886,1.282442689,0,-5.022900581,309.5783691,2831,1377.289429,232.7272797,257.8125
164430.6051,331409.2188,-6.836624622,5.354877472,-4.225015163,0.809160292,-0.687022924,-5.221374035,309.722168,2830,1381.684937,232.7272797,257.8125
164430.616,331417.0313,-6.827049732,5.374027729,-4.270496845,0.290076345,-1.923664093,-4.778625965,309.5783691,2831,1383.882813,232.7272797,257.8125
164430.6172,331424.8438,-6.779174328,5.407540321,-4.313584805,-0.48854962,-1.862595439,-4.305343628,309.5783691,2831,1389.74353,232.7272797,257.8125
164430.6317,331432.6563,-6.752842426,5.395571709,-4.301615715,-0.045801528,-1.282442689,-4.458015442,309.5783691,2831,1391.20874,232.7272797,257.8125
164430.6417,331440.4688,-6.760024071,5.366846085,-4.246559143,0.335877866,-0.24427481,-3.694656372,309.5783691,2831,1395.60437,232.7272797,257.8125
164430.6434,331448.2813,-6.673848152,5.354877472,-4.258527756,0.167938933,0.809160292,-3.480916023,309.4346619,2832,1399.267456,232.7272797,257.8125
164430.6557,331456.0938,-6.709754467,5.402752876,-4.251346588,1.419847369,1.526717544,-3.236641169,309.4346619,2832,1403.662964,232.7272797,257.8125
164430.6639,331463.9063,-6.791142941,5.429084301,-4.251346588,1.893129826,1.328244328,-2.58015275,309.4346619,2832,1404.39563,232.7272797,257.8125
164430.6746,331471.7188,-6.80311203,5.438659668,-4.263315201,1.770992398,0.351145029,-2.931297779,309.5783691,2831,1403.662964,232.7272797,257.8125
164430.6815,331479.5313,-6.817474365,5.453022003,-4.301615715,1.053435087,-2.106870174,-2.564885378,309.2911072,2833,1402.93042,232.7272797,257.8125
164430.6825,331487.3438,-6.822262287,5.438659668,-4.311191082,0.351145029,-3.984732866,-2.458015203,309.2911072,2833,1403.662964,232.7272797,257.8125
164430.6943,331495.1563,-6.810293198,5.429084301,-4.294434547,-0.595419824,-5.877862453,-2.870229006,309.4346619,2832,1404.39563,232.7272797,257.8125
164430.7005,331502.9688,-6.788749218,5.429084301,-4.272890568,-1.389312983,-6.213740349,-2.549618244,309.4346619,2832,1406.593384,232.7272797,257.8125
164430.7014,331510.7813,-6.757630348,5.455415726,-4.27528429,-3.908396959,-6.88549614,-2.763358831,309.2911072,2833,1408.058594,232.7272797,257.8125
164430.7089,331518.5938,-6.827049732,5.433871746,-4.203471184,-3.648854971,-6.290076256,-2.687022924,309.4346619,2832,1409.523804,232.7272797,257.8125
164430.7134,331526.4063,-6.829443455,5.395571709,-4.169958115,-3.083969355,-5.694656372,-2.488549709,309.4346619,2832,1409.523804,232.7272797,257.8125
164430.7215,331534.2188,-6.843806267,5.31897068,-4.095751286,-2.381679296,-4.854961872,-2.290076256,309.1476746,2834,1411.721558,232.7272797,257.8125
164430.7343,331542.0313,-6.81268692,5.333333492,-4.074206829,-1.053435087,-2.916030645,-1.55725193,309.2911072,2833,1412.454224,232.7272797,257.8125
164430.7351,331549.8438,-6.769598961,5.369239807,-4.090963364,-0.24427481,-2.274809122,-1.709923625,309.1476746,2834,1414.651978,232.7272797,257.8125
164430.7439,331557.6563,-6.738480091,5.417115688,-4.093357086,0.519083977,-1.55725193,-2.183206081,309.2911072,2833,1415.384644,232.7272797,257.8125
164430.7463,331565.4688,-6.726511002,5.448234558,-4.129263878,0.946564913,-1.251908422,-2.610687017,309.2911072,2833,1419.047607,232.7272797,257.8125
164430.7587,331573.2813,-6.767205238,5.441053391,-4.186714649,1.46564889,-0.519083977,-2.671755791,309.1476746,2834,1420.512817,232.7272797,257.8125
164430.7638,331581.0938,-6.843806267,5.443447113,-4.227408886,1.419847369,-1.145038128,-2.396946669,309.1476746,2834,1421.978027,232.7272797,257.8125
164430.7757,331588.9063,-6.867743969,5.388390064,-4.208258629,1.51145041,-0.870229006,-1.572519064,309.1476746,2834,1420.512817,232.7272797,257.8125
164430.7869,331596.7188,-6.879712582,5.374027729,-4.210652351,1.236641169,-1.816793919,-1.312977076,309.2911072,2833,1417.582397,196.9230804,304.6875
164430.7966,331604.5313,-6.882106304,5.366846085,-4.162776947,1.328244328,-1.358778596,-0.824427485,309.1476746,2834,1415.384644,196.9230804,304.6875
164430.8059,331612.3438,-6.862956524,5.417115688,-4.236983776,1.46564889,-0.473282456,-0.595419824,309.0043945,2835,1413.919434,196.9230804,304.6875
164430.8135,331620.1563,-6.829443455,5.431478024,-4.282465458,1.450381637,0.351145029,-1.221374035,309.1476746,2834,1410.989014,196.9230804,304.6875
164430.8142,331627.9688,-6.850987434,5.450628281,-4.30640316,0.885496199,0.778625965,-1.770992398,309.1476746,2834,1409.523804,196.9230804,304.6875
164430.8265,331635.7813,-6.853381157,5.402752876,-4.29682827,0.595419824,1.862595439,-1.618320584,309.0043945,2835,1408.058594,196.9230804,304.6875
164430.8415,331643.5938,-6.867743969,5.297426701,-4.28725338,0.656488538,2.335877895,-1.633587837,309.0043945,2835,1405.86084,196.9230804,304.6875
164430.844,331651.4063,-6.929982185,5.280670166,-4.337522507,0.793893158,2.091603041,-1.526717544,309.0043945,2835,1404.39563,196.9230804,304.6875
164430.8542,331659.2188,-6.946738243,5.28785181,-4.359066486,0.595419824,1.145038128,-1.526717544,309.0043945,2835,1405.86084,196.9230804,304.6875
164430.8606,331667.0313,-6.877318859,5.32854557,-4.356672764,0.641221344,1.221374035,-1.984732866,309.0043945,2835,1408.79126,196.9230804,304.6875
164430.8675,331674.8438,-6.831837177,5.32854557,-4.320765972,0,0.48854962,-1.801526666,308.8612366,2836,1410.989014,196.9230804,304.6875
164430.8683,331682.6563,-6.771992683,5.393177509,-4.315978527,-0.58015269,-0.274809152,-2.671755791,308.8612366,2836,1410.989014,196.9230804,304.6875
164430.8755,331690.4688,-6.791142941,5.409934044,-4.294434547,-1.053435087,0.076335877,-3.129770994,309.0043945,2835,1411.721558,196.9230804,304.6875
164430.8794,331698.2813,-6.894075394,5.359664917,-4.258527756,-1.618320584,0.061068702,-3.206106901,308.8612366,2836,1413.186768,196.9230804,304.6875
164430.8946,331706.0938,-6.961101055,5.283063889,-4.253740311,-1.893129826,0.091603056,-2.58015275,308.8612366,2836,1414.651978,196.9230804,304.6875
164430.9164,331713.9063,-6.958707333,5.299820423,-4.263315201,-1.984732866,-0.625954211,-1.984732866,308.8612366,2836,1415.384644,196.9230804,304.6875
164430.9194,331721.7188,-6.901256561,5.290245533,-4.225015163,-2.13740468,-0.671755731,-1.404580116,309.0043945,2835,1418.315063,196.9230804,304.6875
164430.9293,331729.5313,-6.850987434,5.326151848,-4.196289539,-2.015267134,-0.732824445,-1.038167953,308.7182007,2837,1420.512817,196.9230804,304.6875
164430.9373,331737.3438,-6.841412544,5.357271194,-4.181927204,-1.755725145,-1.02290082,-0.961832047,308.7182007,2837,1427.106201,196.9230804,304.6875
164430.9482,331745.1563,-6.839018345,5.381208897,-4.236983776,-1.221374035,-1.908396959,-1.236641169,308.5753174,2838,1431.501831,196.9230804,304.6875
164430.9562,331752.9688,-6.829443455,5.390783787,-4.227408886,-1.603053451,-2.183206081,-1.526717544,308.5753174,2838,1436.630005,196.9230804,304.6875
164430.9684,331760.7813,-6.807899475,5.381208897,-4.201076984,-1.679389358,-2.610687017,-1.358778596,308.5753174,2838,1439.560425,196.9230804,304.6875
164430.9703,331768.5938,-6.78156805,5.357271194,-4.157989025,-1.832061052,-2.259541988,-1.312977076,308.7182007,2837,1440.293091,196.9230804,304.6875
164430.9801,331776.4063,-6.793536663,5.345302105,-4.1316576,-1.679389358,-1.496183157,-1.297709942,308.7182007,2837,1441.025635,196.9230804,304.6875
164430.989,331784.2188,-6.795930386,5.335727215,-4.12208271,-1.633587837,-1.55725193,-1.587786317,308.7182007,2837,1438.827881,196.9230804,304.6875
164430.999,331792.0313,-6.829443455,5.359664917,-4.184320927,-2.122137308,-1.893129826,-1.587786317,308.5753174,2838,1438.095215,196.9230804,304.6875
164431.013,331799.8438,-6.874925137,5.35008955,-4.210652351,-2.335877895,-2.106870174,-1.343511462,308.5753174,2838,1436.630005,196.9230804,304.6875
164431.0193,331807.6563,-6.843806267,5.376421452,-4.222620964,-2.335877895,-2.290076256,-0.687022924,308.7182007,2837,1432.234375,196.9230804,304.6875
164431.023,331815.4688,-6.858168602,5.393177509,-4.246559143,-1.816793919,-1.923664093,-0.305343509,308.289917,2840,1428.571411,196.9230804,304.6875
164431.025,331823.2813,-6.853381157,5.402752876,-4.227408886,-1.221374035,-1.725190878,0.167938933,308.5753174,2838,1424.175781,196.9230804,304.6875
164431.0389,331831.0938,-6.783961773,5.433871746,-4.184320927,-0.748091578,-1.419847369,0.152671754,308.5753174,2838,1419.780273,196.9230804,304.6875
164431.0469,331838.9063,-6.815080643,5.429084301,-4.181927204,-1.053435087,-1.435114503,-0.213740453,308.5753174,2838,1413.919434,196.9230804,304.6875
164431.0548,331846.7188,-6.786355495,5.508079052,-4.189108372,-0.641221344,-1.175572515,-0.335877866,308.5753174,2838,1408.058594,196.9230804,304.6875
164431.0638,331854.5313,-6.752842426,5.51526022,-4.17474556,-1.145038128,-1.526717544,-0.564885497,308.5753174,2838,1403.662964,196.9230804,304.6875
164431.0699,331862.3438,-6.752842426,5.500897884,-4.189108372,-1.755725145,-1.694656491,-0.519083977,308.4325562,2839,1400.732544,196.9230804,304.6875
164431.0808,331870.1563,-6.755236149,5.486535072,-4.150807858,-2.030534267,-2.274809122,-0.717557251,308.5753174,2838,1399.267456,196.9230804,304.6875
164431.0878,331877.9688,-6.783961773,5.481747627,-4.14362669,-1.862595439,-2.259541988,-0.717557251,308.5753174,2838,1400.732544,196.9230804,304.6875
164431.0945,331885.7813,-6.894075394,5.469778538,-4.289647102,-1.801526666,-2.641221285,-0.351145029,308.4325562,2839,1403.662964,196.9230804,304.6875
164431.0999,331893.5938,-6.80311203,5.383602619,-4.16517067,-2.259541988,-3.389312983,-0.427480906,308.4325562,2839,1405.86084,196.9230804,304.6875
164431.1079,331901.4063,-6.793536663,5.397965431,-4.186714649,-0.992366433,-2.763358831,-0.778625965,308.4325562,2839,1409.523804,196.9230804,304.6875
164431.1197,331909.2188,-6.786355495,5.479353905,-4.17474556,-0.53435117,-2.290076256,-0.839694679,308.5753174,2838,1413.919434,196.9230804,304.6875
164431.1266,331917.0313,-6.750448704,5.457809925,-4.146020412,-1.908396959,-2.366412163,-1.038167953,308.4325562,2839,1417.582397,196.9230804,304.6875
164431.1348,331924.8438,-6.728904724,5.409934044,-4.167564392,-2.061068773,-2.473282337,-1.419847369,308.289917,2840,1419.780273,196.9230804,304.6875
164431.1446,331932.6563,-6.78156805,5.397965431,-4.157989025,-1.908396959,-1.969465613,-1.816793919,308.4325562,2839,1420.512817,196.9230804,304.6875
164431.1452,331940.4688,-6.836624622,5.359664917,-4.17474556,-2.381679296,-1.648854971,-1.801526666,308.4325562,2839,1419.780273,196.9230804,304.6875
164431.1565,331948.2813,-6.874925137,5.335727215,-4.181927204,-2,-1.404580116,-1.877862573,308.289917,2840,1418.315063,196.9230804,304.6875
164431.1714,331956.0938,-6.913225651,5.326151848,-4.193895817,-1.893129826,-0.900763333,-1.694656491,308.1474304,2841,1418.315063,196.9230804,304.6875
164431.1775,331963.9063,-6.898862839,5.335727215,-4.196289539,-2.183206081,-0.763358772,-1.51145041,308.289917,2840,1416.849854,196.9230804,304.6875
164431.1824,331971.7188,-6.860562325,5.400359154,-4.213046074,-2.473282337,-0.625954211,-0.870229006,308.289917,2840,1416.849854,196.9230804,304.6875
164431.1847,331979.5313,-6.810293198,5.47217226,-4.210652351,-2.656488657,-0.717557251,-0.717557251,308.1474304,2841,1417.582397,196.9230804,304.6875
164431.1965,331987.3438,-6.786355495,5.498503685,-4.225015163,-3.007633686,-0.671755731,-1.328244328,308.289917,2840,1418.315063,196.9230804,304.6875
164431.2012,331995.1563,-6.738480091,5.522441864,-4.220227242,-3.251908302,-1.007633567,-1.633587837,308.289917,2840,1417.582397,196.9230804,304.6875
164431.2105,332002.9688,-6.771992683,5.548773289,-4.210652351,-3.55725193,-1.297709942,-2.061068773,308.289917,2840,1415.384644,196.9230804,304.6875
164431.211,332010.7813,-6.783961773,5.522441864,-4.189108372,-3.435114622,-1.908396959,-2.641221285,308.1474304,2841,1413.186768,196.9230804,304.6875
164431.2134,332018.5938,-6.831837177,5.503291607,-4.129263878,-2.916030645,-2.488549709,-2.809160233,308.1474304,2841,1410.25647,196.9230804,304.6875
164431.2225,332026.4063,-6.819868565,5.460203648,-4.136445045,-1.908396959,-2.641221285,-3.145038128,308.1474304,2841,1408.058594,196.9230804,304.6875
164431.2345,332034.2188,-6.853381157,5.426690578,-4.064631939,-1.206106901,-2.458015203,-3.11450386,308.289917,2840,1406.593384,196.9230804,304.6875
164431.235,332042.0313,-6.925194263,5.359664917,-4.057450771,-0.732824445,-2.625954151,-2.656488657,308.1474304,2841,1408.058594,196.9230804,304.6875
164431.2353,332049.8438,-6.93476963,5.342908382,-4.064631939,0.106870227,-2.961832047,-2.53435111,308.0050659,2842,1410.25647,196.9230804,304.6875
164431.2485,332057.6563,-6.922800541,5.304607868,-4.107719898,0.015267176,-2.687022924,-2.671755791,308.1474304,2841,1413.186768,196.9230804,304.6875
164431.2566,332065.4688,-6.920406818,5.30939579,-4.146020412,-0.366412222,-2.351145029,-2.671755791,308.1474304,2841,1419.047607,196.9230804,304.6875
164431.2646,332073.2813,-6.865350246,5.285457611,-4.179533005,-0.961832047,-2.061068773,-2.335877895,308.0050659,2842,1424.175781,196.9230804,304.6875
164431.2651,332081.0938,-6.867743969,5.283063889,-4.198683262,-1.893129826,-0.961832047,-2.931297779,308.0050659,2842,1429.304077,196.9230804,304.6875
164431.2765,332088.9063,-6.882106304,5.30939579,-4.205864906,-2.625954151,-0.900763333,-2.778625965,308.1474304,2841,1432.234375,196.9230804,304.6875
164431.2896,332096.7188,-6.920406818,5.31897068,-4.14362669,-2.091603041,-0.076335877,-2.870229006,308.0050659,2842,1432.967041,196.9230804,304.6875
164431.29,332104.5313,-6.920406818,5.357271194,-4.095751286,-0.885496199,0.717557251,-3.267175674,307.8628235,2843,1432.967041,196.9230804,304.6875
164431.2956,332112.3438,-6.915619373,5.402752876,-4.112507343,-0.137404576,1.450381637,-3.267175674,308.0050659,2842,1429.304077,196.9230804,304.6875
164431.3014,332120.1563,-6.898862839,5.460203648,-4.134051323,0.366412222,1.664122105,-2.97709918,307.8628235,2843,1423.443237,196.9230804,304.6875
164431.3145,332127.9688,-6.918013096,5.551167011,-4.172351837,0.854961812,1.160305381,-2.763358831,307.8628235,2843,1416.117188,196.9230804,304.6875
164431.3518,332135.7813,-6.870137691,5.563135624,-4.213046074,1.06870234,1.083969474,-2.717557192,307.8628235,2843,1411.721558,196.9230804,304.6875
164431.3523,332143.5938,-6.874925137,5.536804199,-4.201076984,0.824427485,0.625954211,-2.717557192,307.8628235,2843,1408.058594,196.9230804,546.875
164431.3545,332151.4063,-6.853381157,5.48414135,-4.196289539,0.778625965,0.19847329,-3.129770994,308.0050659,2842,1405.128174,196.9230804,546.875
164431.355,332159.2188,-6.843806267,5.433871746,-4.184320927,0.717557251,-0.961832047,-3.389312983,307.8628235,2843,1402.93042,196.9230804,546.875
164431.3568,332167.0313,-6.839018345,5.385996342,-4.191502094,0.229007632,-1.709923625,-3.328244209,307.7207031,2844,1402.197754,196.9230804,546.875
164431.3669,332174.8438,-6.848593712,5.381208897,-4.157989025,-0.183206111,-1.95419848,-2.793893099,307.8628235,2843,1402.93042,196.9230804,546.875
164431.3764,332182.6563,-6.853381157,5.378815174,-4.160383224,-0.381679386,-2.259541988,-2.473282337,307.8628235,2843,1404.39563,196.9230804,546.875
164431.3826,332190.4688,-6.8342309,5.376421452,-4.129263878,-0.396946579,-2.290076256,-1.95419848,307.5787354,2845,1408.058594,196.9230804,546.875
164431.3933,332198.2813,-6.831837177,5.352483749,-4.110113621,-0.641221344,-2.564885378,-2.076335907,307.7207031,2844,1408.79126,196.9230804,546.875
164431.4014,332206.0938,-6.798324585,5.378815174,-4.138839245,-0.4427481,-2.458015203,-1.648854971,307.7207031,2844,1410.25647,196.9230804,546.875
164431.4034,332213.9063,-6.810293198,5.388390064,-4.136445045,-0.045801528,-2.229007721,-2.13740468,307.7207031,2844,1409.523804,196.9230804,546.875
164431.4039,332221.7188,-6.855774879,5.395571709,-4.129263878,-0.152671754,-2.122137308,-1.938931346,307.8628235,2843,1407.32605,196.9230804,546.875
164431.4153,332229.5313,-6.891681671,5.393177509,-4.126870155,-0.137404576,-1.862595439,-1.984732866,307.7207031,2844,1405.128174,196.9230804,546.875
164431.4248,332237.3438,-6.884500504,5.395571709,-4.117295265,-0.259541988,-1.160305381,-2.030534267,307.5787354,2845,1402.197754,196.9230804,546.875
164431.4312,332245.1563,-6.867743969,5.376421452,-4.129263878,-0.305343509,-0.809160292,-1.541984677,307.7207031,2844,1402.93042,196.9230804,546.875
164431.4406,332252.9688,-6.862956524,5.395571709,-4.150807858,-0.045801528,-0.900763333,-1.587786317,307.7207031,2844,1402.93042,196.9230804,546.875
164431.4511,332260.7813,-6.872531414,5.35008955,-4.141232967,0.427480906,-0.97709924,-1.02290082,307.7207031,2844,1402.197754,196.9230804,546.875
164431.4621,332268.5938,-6.872531414,5.357271194,-4.112507343,0.931297719,-0.931297719,-0.778625965,307.4368896,2846,1402.197754,196.9230804,546.875
164431.4679,332276.4063,-6.894075394,5.381208897,-4.16517067,0.687022924,-1.175572515,-0.58015269,307.7207031,2844,1399.267456,196.9230804,546.875
164431.47,332284.2188,-6.922800541,5.376421452,-4.196289539,0.564885497,-1.709923625,-0.183206111,307.5787354,2845,1401.46521,196.9230804,546.875
164431.4814,332292.0313,-6.901256561,5.37163353,-4.14362669,0.259541988,-1.832061052,-0.030534351,307.5787354,2845,1403.662964,196.9230804,546.875
164431.491,332299.8438,-6.882106304,5.345302105,-4.102932453,0.381679386,-1.603053451,0.030534351,307.4368896,2846,1407.32605,196.9230804,546.875
164431.4993,332307.6563,-6.896469116,5.369239807,-4.124476433,1.053435087,-1.267175555,-0.320610672,307.5787354,2845,1408.058594,196.9230804,546.875
164431.5021,332315.4688,-6.961101055,5.405146599,-4.229802608,1.679389358,-0.656488538,-0.351145029,307.5787354,2845,1408.058594,196.9230804,546.875
164431.5129,332323.2813,-6.958707333,5.412327766,-4.241771221,1.893129826,0.076335877,-0.931297719,307.5787354,2845,1408.058594,196.9230804,546.875
164431.52,332331.0938,-6.918013096,5.426690578,-4.227408886,1.877862573,-0.259541988,-1.053435087,307.4368896,2846,1406.593384,196.9230804,546.875
164431.5266,332338.9063,-6.82465601,5.448234558,-4.210652351,1.46564889,0.106870227,-1.587786317,307.4368896,2846,1403.662964,196.9230804,546.875
164431.5357,332346.7188,-6.800718307,5.450628281,-4.260921478,0.793893158,-0.610687017,-1.969465613,307.4368896,2846,1400.732544,196.9230804,546.875
164431.5377,332354.5313,-6.862956524,5.474565983,-4.335128784,0.19847329,-0.549618304,-2.320610762,307.4368896,2846,1400.732544,196.9230804,546.875
164431.5656,332362.3438,-6.867743969,5.49371624,-4.31837225,0.290076345,-0.427480906,-2.549618244,307.4368896,2846,1397.802246,196.9230804,546.875
164431.5776,332370.1563,-6.8342309,5.424296856,-4.196289539,0.503816783,0,-2.259541988,307.4368896,2846,1394.13916,196.9230804,546.875
164431.5815,332377.9688,-6.819868565,5.405146599,-4.155595303,0.549618304,-0.24427481,-1.923664093,307.4368896,2846,1392.67395,196.9230804,546.875
164431.5934,332385.7813,-6.839018345,5.421903133,-4.141232967,0.885496199,0.152671754,-2.458015203,307.4368896,2846,1391.20874,196.9230804,546.875
164431.5937,332393.5938,-6.898862839,5.426690578,-4.150807858,0.931297719,0.717557251,-2.183206081,307.2951965,2847,1390.476196,196.9230804,546.875
164431.5977,332401.4063,-6.949132442,5.405146599,-4.141232967,0.748091578,0.717557251,-2.305343628,307.4368896,2846,1390.476196,196.9230804,546.875
164431.605,332409.2188,-6.9658885,5.359664917,-4.141232967,1.206106901,0.992366433,-2.04580164,307.2951965,2847,1391.941406,196.9230804,546.875
164431.6055,332417.0313,-6.963494778,5.314183235,-4.186714649,1.06870234,0.229007632,-1.969465613,307.2951965,2847,1394.13916,196.9230804,546.875
164431.6179,332424.8438,-6.922800541,5.30939579,-4.193895817,0.213740453,-0.351145029,-1.679389358,307.2951965,2847,1394.13916,196.9230804,546.875
164431.6333,332432.6563,-6.906044483,5.321364403,-4.17474556,0.030534351,-0.748091578,-1.206106901,307.2951965,2847,1395.60437,196.9230804,546.875
164431.6392,332440.4688,-6.850987434,5.352483749,-4.16517067,-0.030534351,-1.145038128,-1.55725193,307.153595,2848,1396.337036,196.9230804,546.875
164431.6414,332448.2813,-6.817474365,5.369239807,-4.15320158,0.152671754,-1.343511462,-1.694656491,307.2951965,2847,1395.60437,196.9230804,546.875
164431.6606,332456.0938,-6.800718307,5.36205864,-4.141232967,-0.229007632,-1.679389358,-2.274809122,307.153595,2848,1396.337036,196.9230804,546.875
164431.6635,332463.9063,-6.819868565,5.333333492,-4.138839245,-1.007633567,-1.587786317,-2.213740349,307.2951965,2847,1397.06958,196.9230804,546.875
164431.6702,332471.7188,-6.886894226,5.307001591,-4.107719898,-0.900763333,-0.824427485,-2.152671814,307.153595,2848,1398.53479,196.9230804,546.875
164431.6729,332479.5313,-6.874925137,5.335727215,-4.110113621,-0.53435117,-0.015267176,-2.244274855,307.2951965,2847,1400,196.9230804,546.875
164431.6815,332487.3438,-6.927588463,5.333333492,-4.198683262,-0.427480906,0.091603056,-1.832061052,307.153595,2848,1400.732544,196.9230804,546.875
164431.6945,332495.1563,-6.951526165,5.36205864,-4.222620964,-0.335877866,0.748091578,-1.374045849,307.153595,2848,1399.267456,196.9230804,546.875
164431.695,332502.9688,-6.927588463,5.357271194,-4.248952866,-0.335877866,1.236641169,-0.702290058,307.153595,2848,1400,196.9230804,546.875
164431.6955,332510.7813,-6.941950798,5.347695827,-4.244164944,0,0.900763333,-0.290076345,307.153595,2848,1401.46521,196.9230804,546.875
164431.7047,332518.5938,-6.862956524,5.364452362,-4.272890568,-0.030534351,-0.030534351,-0.061068702,307.153595,2848,1402.93042,196.9230804,546.875
164431.7127,332526.4063,-6.862956524,5.388390064,-4.28725338,-0.335877866,-0.656488538,0.183206111,307.153595,2848,1403.662964,196.9230804,546.875
164431.7193,332534.2188,-6.850987434,5.393177509,-4.263315201,-0.656488538,-1.893129826,0.045801528,307.153595,2848,1405.128174,196.9230804,546.875
164431.7334,332542.0313,-6.822262287,5.421903133,-4.189108372,-1.587786317,-2.961832047,-0.045801528,307.012146,2849,1405.86084,196.9230804,546.875
164431.7393,332549.8438,-6.82465601,5.419509411,-4.16517067,-1.95419848,-3.374045849,-0.381679386,307.012146,2849,1405.128174,196.9230804,546.875
164431.7506,332557.6563,-6.815080643,5.400359154,-4.1316576,-2.290076256,-3.755725145,-0.519083977,307.153595,2848,1402.93042,196.9230804,546.875
164431.7562,332565.4688,-6.791142941,5.409934044,-4.157989025,-2.503816843,-4.183206081,-1.297709942,306.7296448,2851,1403.662964,196.9230804,546.875
164431.7604,332573.2813,-6.776780605,5.424296856,-4.155595303,-2.335877895,-2.305343628,-1.496183157,307.012146,2849,1402.93042,196.9230804,546.875
164431.7672,332581.0938,-6.874925137,5.414721489,-4.325553417,-1.236641169,-0.732824445,-1.770992398,306.8708496,2850,1402.93042,196.9230804,546.875
164431.7751,332588.9063,-6.906044483,5.383602619,-4.325553417,-1.984732866,-1.55725193,-1.312977076,307.012146,2849,1402.197754,196.9230804,546.875
164431.7852,332596.7188,-6.860562325,5.342908382,-4.299221992,-1.938931346,-2.610687017,-1.358778596,307.012146,2849,1401.46521,196.9230804,546.875
164431.7857,332604.5313,-6.846199989,5.37163353,-4.378216743,-1.496183157,-0.778625965,-1.541984677,307.012146,2849,1402.197754,196.9230804,546.875
164431.8013,332612.3438,-6.793536663,5.385996342,-4.301615715,-2.396946669,-1.816793919,-1.648854971,306.7296448,2851,1403.662964,196.9230804,546.875
164431.8051,332620.1563,-6.819868565,5.34051466,-4.325553417,-3.083969355,-2.519083977,-1.55725193,306.8708496,2850,1402.93042,196.9230804,546.875
164431.813,332627.9688,-6.853381157,5.335727215,-4.330341339,-3.618320704,-2.473282337,-1.526717544,306.8708496,2850,1402.197754,196.9230804,546.875
164431.8239,332635.7813,-6.922800541,5.259126186,-4.227408886,-3.343511343,-2.183206081,-1.801526666,306.8708496,2850,1402.197754,196.9230804,546.875
164431.8301,332643.5938,-6.913225651,5.256732464,-4.193895817,-3.145038128,-2.44274807,-1.786259532,306.7296448,2851,1401.46521,196.9230804,546.875
164431.8393,332651.4063,-6.95631361,5.28785181,-4.148414135,-3.145038128,-1.480916023,-1.541984677,306.8708496,2850,1400,196.9230804,546.875
164431.8428,332659.2188,-7.00897646,5.302214146,-4.14362669,-1.862595439,-1.374045849,-0.656488538,306.7296448,2851,1397.802246,196.9230804,546.875
164431.8592,332667.0313,-7.00897646,5.30939579,-4.134051323,-2.015267134,-1.984732866,0.106870227,306.7296448,2851,1394.13916,196.9230804,546.875
164431.8662,332674.8438,-6.925194263,5.421903133,-4.1316576,-2.274809122,-2.13740468,0.4427481,306.7296448,2851,1391.20874,196.9230804,546.875
164431.8683,332682.6563,-6.913225651,5.436265945,-4.138839245,-2.015267134,-2.473282337,0.595419824,306.7296448,2851,1388.278442,196.9230804,546.875
164431.8802,332690.4688,-6.843806267,5.460203648,-4.102932453,-1.145038128,-2.213740349,0.320610672,306.8708496,2850,1388.278442,196.9230804,546.875
164431.8931,332698.2813,-6.8342309,5.453022003,-4.078994751,-0.931297719,-1.389312983,0,306.7296448,2851,1389.74353,196.9230804,546.875
164431.8935,332706.0938,-6.776780605,5.433871746,-4.055057049,-0.076335877,-0.366412222,-0.656488538,306.5885925,2852,1391.941406,196.9230804,546.875
164431.9018,332713.9063,-6.800718307,5.417115688,-4.059844494,0.366412222,0,-1.358778596,306.7296448,2851,1392.67395,196.9230804,546.875
164431.9124,332721.7188,-6.81268692,5.397965431,-4.095751286,0.610687017,1.160305381,-2.122137308,306.7296448,2851,1393.406616,196.9230804,546.875
164431.9231,332729.5313,-6.855774879,5.374027729,-4.112507343,0.916030526,1.755725145,-2.122137308,306.5885925,2852,1394.871826,196.9230804,546.875
164431.9241,332737.3438,-6.858168602,5.357271194,-4.141232967,1.236641169,1.938931346,-2,306.4476624,2853,1393.406616,196.9230804,546.875
164431.9338,332745.1563,-6.843806267,5.311789513,-4.167564392,1.618320584,1.893129826,-2.122137308,306.5885925,2852,1389.74353,196.9230804,546.875
164431.945,332752.9688,-6.870137691,5.261519909,-4.162776947,2.04580164,1.648854971,-1.923664093,306.5885925,2852,1386.080566,196.9230804,546.875
164431.952,332760.7813,-6.882106304,5.278276443,-4.191502094,2.335877895,1.877862573,-1.404580116,306.5885925,2852,1384.615356,196.9230804,546.875
164431.9635,332768.5938,-6.927588463,5.32854557,-4.177139282,2.961832047,1.832061052,-0.763358772,306.4476624,2853,1385.348022,196.9230804,546.875
164431.97,332776.4063,-6.927588463,5.335727215,-4.201076984,3.068702221,1.175572515,-0.503816783,306.5885925,2852,1385.348022,196.9230804,546.875
164431.9719,332784.2188,-6.920406818,5.357271194,-4.239377499,2.854961872,0.702290058,-0.503816783,306.5885925,2852,1386.813232,196.9230804,546.875
164431.9849,332792.0313,-6.901256561,5.388390064,-4.248952866,2.824427366,0.091603056,-0.687022924,306.4476624,2853,1388.278442,196.9230804,546.875
164431.99,332799.8438,-6.839018345,5.412327766,-4.251346588,2.244274855,0.656488538,-1.190839648,306.3068542,2854,1389.010986,196.9230804,546.875
164431.9989,332807.6563,-6.793536663,5.429084301,-4.299221992,1.664122105,0.305343509,-1.679389358,306.3068542,2854,1388.278442,196.9230804,546.875
164432.0028,332815.4688,-6.786355495,5.431478024,-4.294434547,0.809160292,-0.076335877,-1.893129826,306.4476624,2853,1386.813232,196.9230804,546.875
164432.0141,332823.2813,-6.807899475,5.385996342,-4.308797359,-0.305343509,-0.366412222,-2.320610762,306.4476624,2853,1385.348022,196.9230804,546.875
164432.0259,332831.0938,-6.788749218,5.402752876,-4.294434547,-0.595419824,-0.290076345,-2.122137308,306.1661987,2855,1386.080566,196.9230804,546.875
164432.0265,332838.9063,-6.874925137,5.374027729,-4.272890568,-0.900763333,0.030534351,-2.030534267,306.4476624,2853,1382.417603,196.9230804,546.875
164432.0388,332846.7188,-6.879712582,5.37163353,-4.246559143,-0.778625965,0.351145029,-2.122137308,306.4476624,2853,1381.684937,196.9230804,546.875
164432.053,332854.5313,-6.898862839,5.369239807,-4.248952866,-0.48854962,0.625954211,-1.801526666,306.3068542,2854,1381.684937,196.9230804,546.875
164432.0537,332862.3438,-6.915619373,5.374027729,-4.248952866,-0.427480906,0.625954211,-1.46564889,306.0256348,2856,1382.417603,196.9230804,546.875
164432.0617,332870.1563,-6.906044483,5.376421452,-4.253740311,-0.427480906,0.320610672,-1.282442689,306.3068542,2854,1382.417603,196.9230804,546.875
164432.0661,332877.9688,-6.898862839,5.383602619,-4.301615715,-0.53435117,0.167938933,-1.297709942,306.3068542,2854,1383.882813,196.9230804,546.875
164432.0787,332885.7813,-6.858168602,5.381208897,-4.301615715,-1.221374035,0.076335877,-1.06870234,306.3068542,2854,1385.348022,196.9230804,546.875
164432.0926,332893.5938,-6.819868565,5.374027729,-4.229802608,-1.664122105,0.24427481,-1.541984677,306.1661987,2855,1389.74353,196.9230804,546.875
164432.0989,332901.4063,-6.78156805,5.388390064,-4.196289539,-1.740458012,0.519083977,-1.526717544,306.3068542,2854,1391.941406,196.9230804,546.875
164432.1027,332909.2188,-6.805505753,5.397965431,-4.184320927,-1.95419848,0.839694679,-2.122137308,306.3068542,2854,1395.60437,196.9230804,546.875
164432.1086,332917.0313,-6.800718307,5.397965431,-4.205864906,-1.893129826,1.099236608,-2.091603041,306.1661987,2855,1399.267456,196.9230804,546.875
164432.1203,332924.8438,-6.819868565,5.412327766,-4.196289539,-1.648854971,1.679389358,-2.259541988,306.0256348,2856,1402.93042,196.9230804,546.875
164432.1266,332932.6563,-6.846199989,5.395571709,-4.208258629,-1.46564889,1.496183157,-1.95419848,306.1661987,2855,1402.93042,196.9230804,546.875
164432.1395,332940.4688,-6.831837177,5.347695827,-4.191502094,-1.007633567,1.648854971,-1.801526666,306.1661987,2855,1400.732544,196.9230804,546.875
164432.1476,332948.2813,-6.901256561,5.36205864,-4.181927204,-0.793893158,1.832061052,-1.358778596,306.1661987,2855,1399.267456,196.9230804,546.875
164432.1548,332956.0938,-6.898862839,5.366846085,-4.215439796,-0.259541988,0.793893158,-1.282442689,306.0256348,2856,1400.732544,196.9230804,546.875
164432.161,332963.9063,-6.910831928,5.385996342,-4.179533005,0.229007632,0.885496199,-1.145038128,306.0256348,2856,1399.267456,196.9230804,546.875
164432.1655,332971.7188,-6.879712582,5.421903133,-4.196289539,0.366412222,0.946564913,-1.374045849,306.1661987,2855,1399.267456,196.9230804,546.875
164432.1755,332979.5313,-6.877318859,5.417115688,-4.157989025,0.763358772,1.328244328,-1.648854971,306.0256348,2856,1397.802246,196.9230804,546.875
164432.1972,332987.3438,-6.8342309,5.397965431,-4.184320927,0.885496199,1.832061052,-1.419847369,305.8852234,2857,1397.06958,196.9230804,546.875
164432.1977,332995.1563,-6.8342309,5.359664917,-4.220227242,0.748091578,2.732824326,-1.877862573,306.0256348,2856,1396.337036,196.9230804,851.5625
164432.2093,333002.9688,-6.841412544,5.333333492,-4.27528429,0.793893158,2.427480936,-1.679389358,306.0256348,2856,1394.871826,196.9230804,851.5625
164432.2096,333010.7813,-6.791142941,5.364452362,-4.299221992,0.870229006,2.97709918,-2.030534267,306.0256348,2856,1395.60437,196.9230804,851.5625
164432.219,333018.5938,-6.798324585,5.338120937,-4.330341339,0.427480906,2.809160233,-2.519083977,305.8852234,2857,1398.53479,196.9230804,851.5625
164432.2234,333026.4063,-6.769598961,5.359664917,-4.325553417,0.473282456,2.931297779,-2.274809122,305.8852234,2857,1398.53479,196.9230804,851.5625
164432.2317,333034.2188,-6.776780605,5.335727215,-4.301615715,0.351145029,3.007633686,-1.862595439,306.0256348,2856,1398.53479,196.9230804,851.5625
164432.2431,333042.0313,-6.774386406,5.342908382,-4.27528429,1.175572515,2.931297779,-1.893129826,306.0256348,2856,1399.267456,196.9230804,851.5625
164432.2552,333049.8438,-6.774386406,5.354877472,-4.311191082,1.95419848,3.190839767,-1.877862573,305.8852234,2857,1399.267456,196.9230804,851.5625
164432.2616,333057.6563,-6.810293198,5.352483749,-4.32794714,2.244274855,4.061068535,-1.55725193,306.0256348,2856,1401.46521,196.9230804,851.5625
164432.2643,333065.4688,-6.817474365,5.364452362,-4.30640316,2.809160233,4.076335907,-1.404580116,305.8852234,2857,1402.197754,196.9230804,851.5625
164432.265,333073.2813,-6.800718307,5.388390064,-4.292040825,2.04580164,3.053435087,-1.938931346,305.8852234,2857,1404.39563,196.9230804,851.5625
164432.2763,333081.0938,-6.783961773,5.409934044,-4.265708923,1.267175555,2.198473215,-2.595419884,305.8852234,2857,1406.593384,196.9230804,851.5625
164432.2783,333088.9063,-6.757630348,5.421903133,-4.313584805,0.839694679,2.167938948,-3.221374035,305.7449341,2858,1408.058594,196.9230804,851.5625
164432.293,333096.7188,-6.769598961,5.424296856,-4.385397911,1.129770994,2.870229006,-3.480916023,305.8852234,2857,1406.593384,196.9230804,851.5625
164432.303,333104.5313,-6.807899475,5.390783787,-4.359066486,1.496183157,3.175572634,-3.908396959,305.8852234,2857,1403.662964,196.9230804,851.5625
164432.313,333112.3438,-6.793536663,5.335727215,-4.332735062,0.97709924,2.793893099,-4.030534267,305.7449341,2858,1399.267456,196.9230804,851.5625
164432.3151,333120.1563,-6.846199989,5.314183235,-4.227408886,0.717557251,2.687022924,-3.755725145,305.8852234,2857,1392.67395,196.9230804,851.5625
164432.326,333127.9688,-6.891681671,5.283063889,-4.248952866,1.51145041,2.396946669,-3.068702221,305.6047974,2859,1389.74353,196.9230804,851.5625
164432.33,333135.7813,-6.918013096,5.299820423,-4.375823021,2.061068773,2.076335907,-2.717557192,305.7449341,2858,1385.348022,196.9230804,851.5625
164432.341,333143.5938,-6.874925137,5.338120937,-4.380610466,2.366412163,3.007633686,-2.53435111,305.6047974,2859,1386.080566,196.9230804,851.5625
164432.3535,333151.4063,-6.82465601,5.34051466,-4.349491119,1.755725145,3.068702221,-2.290076256,305.7449341,2858,1383.150146,196.9230804,851.5625
164432.3541,333159.2188,-6.771992683,5.321364403,-4.356672764,1.541984677,3.496183157,-2.274809122,305.7449341,2858,1383.882813,196.9230804,851.5625
164432.3681,333167.0313,-6.748054981,5.307001591,-4.32794714,1.190839648,3.267175674,-2.931297779,305.7449341,2858,1382.417603,196.9230804,851.5625
164432.3816,333174.8438,-6.815080643,5.273488998,-4.366247654,1.282442689,3.160305262,-3.541984797,305.4647522,2860,1383.150146,196.9230804,851.5625
164432.3822,333182.6563,-6.8342309,5.235188484,-4.368641376,0.748091578,2.97709918,-3.068702221,305.7449341,2858,1380.219727,196.9230804,851.5625
164432.3847,333190.4688,-6.848593712,5.247157574,-4.373429298,0.030534351,2.229007721,-2.610687017,305.7449341,2858,1379.487183,196.9230804,851.5625
164432.3942,333198.2813,-6.898862839,5.249551296,-4.416517258,-0.763358772,0.839694679,-1.267175555,305.7449341,2858,1380.952393,196.9230804,851.5625
164432.4091,333206.0938,-6.918013096,5.314183235,-4.435667038,-1.541984677,-0.793893158,-0.824427485,305.4647522,2860,1382.417603,196.9230804,851.5625
164432.4159,333213.9063,-6.889287949,5.381208897,-4.42848587,-2.122137308,-1.801526666,-0.610687017,305.6047974,2859,1383.882813,196.9230804,851.5625
164432.422,333221.7188,-6.817474365,5.407540321,-4.411729336,-2.076335907,-2.44274807,-0.916030526,305.6047974,2859,1385.348022,196.9230804,851.5625
164432.4226,333229.5313,-6.78156805,5.417115688,-4.363853931,-1.801526666,-2.748091698,-1.374045849,305.4647522,2860,1386.080566,196.9230804,851.5625
164432.4343,333237.3438,-6.779174328,5.37163353,-4.387791634,-2.061068773,-3.160305262,-1.725190878,305.4647522,2860,1386.080566,196.9230804,851.5625
164432.4475,333245.1563,-6.791142941,5.390783787,-4.373429298,-2.396946669,-3.969465733,-2,305.6047974,2859,1385.348022,196.9230804,851.5625
164432.4595,333252.9688,-6.817474365,5.383602619,-4.402154446,-3.083969355,-4.366412163,-2.076335907,305.4647522,2860,1385.348022,196.9230804,851.5625
164432.4631,333260.7813,-6.827049732,5.376421452,-4.399760723,-3.969465733,-4.961832047,-1.572519064,305.4647522,2860,1385.348022,196.9230804,851.5625
164432.4729,333268.5938,-6.822262287,5.321364403,-4.387791634,-4.961832047,-5.190839767,-1.358778596,305.3248596,2861,1385.348022,196.9230804,851.5625
164432.4825,333276.4063,-6.82465601,5.307001591,-4.349491119,-5.251908302,-4.503816605,-1.51145041,305.6047974,2859,1386.080566,196.9230804,851.5625
164432.4866,333284.2188,-6.822262287,5.280670166,-4.351885319,-5.480916023,-4.412213802,-1.358778596,305.4647522,2860,1386.080566,196.9230804,851.5625
164432.4942,333292.0313,-6.831837177,5.31897068,-4.356672764,-5.358778477,-5.022900581,-1.099236608,305.4647522,2860,1386.813232,196.9230804,851.5625
164432.5005,333299.8438,-6.8342309,5.304607868,-4.335128784,-3.86259532,-4.763358593,-1.694656491,305.1850891,2862,1387.545776,196.9230804,851.5625
164432.5146,333307.6563,-6.771992683,5.33093977,-4.337522507,-4.687022686,-3.893129826,-2.213740349,305.3248596,2861,1386.813232,196.9230804,851.5625
164432.5204,333315.4688,-6.78156805,5.34051466,-4.30640316,-3.435114622,-4.519083977,-2.229007721,305.3248596,2861,1386.080566,196.9230804,851.5625
164432.5292,333323.2813,-6.764811516,5.34051466,-4.270496845,-3.832061052,-3.099236727,-2.549618244,305.3248596,2861,1384.615356,196.9230804,851.5625
164432.5334,333331.0938,-6.795930386,5.314183235,-4.28725338,-2.839694738,-1.435114503,-2.381679296,305.1850891,2862,1386.080566,196.9230804,335.9375
164432.5429,333338.9063,-6.839018345,5.316576958,-4.270496845,-2.793893099,-2.183206081,-2.290076256,305.3248596,2861,1386.080566,196.9230804,335.9375
164432.5514,333346.7188,-6.896469116,5.333333492,-4.313584805,-2.366412163,-2.44274807,-2.122137308,305.3248596,2861,1386.080566,196.9230804,335.9375
164432.5533,333354.5313,-6.872531414,5.34051466,-4.313584805,-4.167938709,-1.893129826,-2.351145029,305.1850891,2862,1386.813232,196.9230804,335.9375
164432.5633,333362.3438,-6.906044483,5.36205864,-4.304009438,-2.732824326,-2.076335907,-1.679389358,305.1850891,2862,1389.010986,196.9230804,335.9375
164432.5783,333370.1563,-6.831837177,5.30939579,-4.292040825,-3.55725193,-3.053435087,-1.938931346,305.1850891,2862,1389.010986,196.9230804,335.9375
164432.5843,333377.9688,-6.819868565,5.295032978,-4.27528429,-2.335877895,-1.190839648,-2.427480936,305.0454407,2863,1391.941406,196.9230804,335.9375
164432.5922,333385.7813,-6.836624622,5.34051466,-4.27528429,-0.427480906,-1.206106901,-1.893129826,305.1850891,2862,1393.406616,196.9230804,335.9375
164432.5964,333393.5938,-6.788749218,5.338120937,-4.225015163,-0.656488538,-0.564885497,-1.480916023,305.0454407,2863,1396.337036,196.9230804,335.9375
164432.6065,333401.4063,-6.745661259,5.345302105,-4.227408886,-0.519083977,0,-2.091603041,305.1850891,2862,1399.267456,196.9230804,335.9375
164432.6313,333409.2188,-6.795930386,5.352483749,-4.232196331,-0.58015269,1.709923625,-2.53435111,305.1850891,2862,1402.93042,196.9230804,335.9375
164432.6332,333417.0313,-6.855774879,5.259126186,-4.217833519,0.229007632,2.519083977,-2.717557192,305.0454407,2863,1404.39563,196.9230804,335.9375
164432.6336,333424.8438,-6.853381157,5.220825672,-4.31837225,0.549618304,2.854961872,-2.625954151,305.0454407,2863,1405.86084,196.9230804,335.9375
164432.6361,333432.6563,-6.922800541,5.280670166,-4.332735062,0.290076345,2.53435111,-2.351145029,305.1850891,2862,1405.86084,196.9230804,335.9375
164432.6365,333440.4688,-6.910831928,5.268701553,-4.383004189,-0.335877866,1.862595439,-1.740458012,304.9059448,2864,1405.128174,196.9230804,335.9375
164432.6381,333448.2813,-6.882106304,5.273488998,-4.313584805,-0.24427481,1.938931346,-1.06870234,305.0454407,2863,1402.93042,196.9230804,335.9375
164432.6462,333456.0938,-6.762417793,5.292639256,-4.27528429,0.519083977,2.564885378,-0.946564913,304.9059448,2864,1400.732544,196.9230804,335.9375
164432.6603,333463.9063,-6.760024071,5.299820423,-4.29682827,1.11450386,2.793893099,-1.160305381,305.0454407,2863,1400,196.9230804,335.9375
164432.6701,333471.7188,-6.8342309,5.347695827,-4.282465458,1.526717544,2.625954151,-1.038167953,304.7665405,2865,1402.197754,196.9230804,335.9375
164432.6742,333479.5313,-6.798324585,5.359664917,-4.282465458,1.419847369,2.595419884,-1.374045849,305.0454407,2863,1400.732544,196.9230804,335.9375
164432.686,333487.3438,-6.786355495,5.352483749,-4.289647102,0.992366433,2.13740468,-1.755725145,304.7665405,2865,1400.732544,196.9230804,335.9375
